Golf Swing Raw Accelerometer Data (@ 800Hz)
Sample Count: 107063

SensorTime,RawAccelX,RawAccelY,RawAccelZ,RawAccelMag
121669.9048,0.0479,-0.1359,-0.9818,0.9923
121669.9061,0.0478,-0.1324,-0.9809,0.9910
121669.9074,0.0475,-0.1324,-0.9838,0.9938
121669.9086,0.0482,-0.1354,-0.9850,0.9954
121669.9099,0.0487,-0.1334,-0.9865,0.9967
121669.9111,0.0472,-0.1317,-0.9868,0.9966
121669.9124,0.0458,-0.1328,-0.9856,0.9956
121669.9136,0.0458,-0.1326,-0.9860,0.9959
121669.9149,0.0471,-0.1341,-0.9854,0.9955
121669.9161,0.0440,-0.1371,-0.9864,0.9968
121669.9174,0.0447,-0.1386,-0.9874,0.9981
121669.9186,0.0405,-0.1404,-0.9859,0.9967
121669.9199,0.0451,-0.1379,-0.9853,0.9959
121669.9212,0.0446,-0.1411,-0.9905,1.0015
121669.9224,0.0440,-0.1417,-0.9892,1.0003
121669.9237,0.0440,-0.1371,-0.9868,0.9972
121669.9249,0.0427,-0.1408,-0.9875,0.9984
121669.9262,0.0432,-0.1410,-0.9889,0.9998
121669.9274,0.0458,-0.1430,-0.9932,1.0045
121669.9287,0.0467,-0.1432,-0.9910,1.0024
121669.9299,0.0453,-0.1430,-0.9904,1.0017
121669.9312,0.0460,-0.1440,-0.9892,1.0006
121669.9324,0.0492,-0.1412,-0.9907,1.0019
121669.9337,0.0470,-0.1414,-0.9896,1.0007
121669.9350,0.0485,-0.1425,-0.9897,1.0011
121669.9362,0.0491,-0.1433,-0.9865,0.9981
121669.9375,0.0487,-0.1434,-0.9877,0.9992
121669.9387,0.0498,-0.1452,-0.9854,0.9973
121669.9400,0.0499,-0.1452,-0.9865,0.9983
121669.9412,0.0458,-0.1506,-0.9845,0.9970
121669.9425,0.0489,-0.1498,-0.9845,0.9970
121669.9437,0.0456,-0.1528,-0.9802,0.9931
121669.9450,0.0480,-0.1538,-0.9813,0.9944
121669.9463,0.0468,-0.1565,-0.9796,0.9931
121669.9475,0.0475,-0.1601,-0.9814,0.9955
121669.9488,0.0482,-0.1578,-0.9774,0.9912
121669.9500,0.0451,-0.1578,-0.9817,0.9953
121669.9513,0.0464,-0.1569,-0.9810,0.9946
121669.9525,0.0428,-0.1576,-0.9783,0.9919
121669.9538,0.0449,-0.1573,-0.9844,0.9979
121669.9550,0.0440,-0.1554,-0.9812,0.9944
121669.9563,0.0428,-0.1546,-0.9782,0.9912
121669.9575,0.0417,-0.1543,-0.9801,0.9930
121669.9588,0.0403,-0.1586,-0.9810,0.9946
121669.9601,0.0395,-0.1607,-0.9795,0.9934
121669.9613,0.0348,-0.1599,-0.9833,0.9969
121669.9626,0.0341,-0.1600,-0.9812,0.9948
121669.9638,0.0395,-0.1601,-0.9843,0.9980
121669.9651,0.0384,-0.1593,-0.9845,0.9981
121669.9663,0.0400,-0.1534,-0.9850,0.9976
121669.9676,0.0403,-0.1537,-0.9827,0.9955
121669.9688,0.0390,-0.1476,-0.9852,0.9969
121669.9701,0.0401,-0.1438,-0.9870,0.9982
121669.9713,0.0410,-0.1387,-0.9830,0.9936
121669.9726,0.0426,-0.1346,-0.9860,0.9960
121669.9739,0.0434,-0.1323,-0.9884,0.9981
121669.9751,0.0401,-0.1310,-0.9866,0.9961
121669.9764,0.0434,-0.1255,-0.9854,0.9943
121669.9776,0.0441,-0.1269,-0.9877,0.9968
121669.9789,0.0453,-0.1264,-0.9876,0.9967
121669.9801,0.0457,-0.1272,-0.9873,0.9965
121669.9814,0.0480,-0.1246,-0.9900,0.9989
121669.9826,0.0483,-0.1277,-0.9864,0.9958
121669.9839,0.0479,-0.1233,-0.9906,0.9993
121669.9852,0.0472,-0.1220,-0.9843,0.9930
121669.9864,0.0526,-0.1229,-0.9906,0.9996
121669.9877,0.0516,-0.1220,-0.9907,0.9995
121669.9889,0.0531,-0.1230,-0.9848,0.9939
121669.9902,0.0504,-0.1284,-0.9883,0.9979
121669.9914,0.0518,-0.1260,-0.9868,0.9961
121669.9927,0.0515,-0.1284,-0.9840,0.9936
121669.9939,0.0516,-0.1308,-0.9788,0.9889
121669.9952,0.0494,-0.1350,-0.9794,0.9899
121669.9964,0.0539,-0.1362,-0.9796,0.9904
121669.9977,0.0504,-0.1435,-0.9791,0.9908
121669.9990,0.0476,-0.1459,-0.9769,0.9888
121670.0002,0.0495,-0.1526,-0.9765,0.9896
121670.0015,0.0507,-0.1523,-0.9776,0.9907
121670.0027,0.0496,-0.1527,-0.9778,0.9909
121670.0040,0.0502,-0.1561,-0.9751,0.9888
121670.0052,0.0519,-0.1573,-0.9786,0.9925
121670.0065,0.0517,-0.1509,-0.9736,0.9866
121670.0077,0.0490,-0.1545,-0.9748,0.9881
121670.0090,0.0497,-0.1544,-0.9739,0.9873
121670.0102,0.0514,-0.1552,-0.9705,0.9842
121670.0115,0.0502,-0.1525,-0.9772,0.9903
121670.0128,0.0524,-0.1490,-0.9756,0.9883
121670.0140,0.0521,-0.1500,-0.9744,0.9873
121670.0153,0.0549,-0.1513,-0.9744,0.9876
121670.0165,0.0560,-0.1535,-0.9736,0.9872
121670.0178,0.0564,-0.1539,-0.9702,0.9840
121670.0190,0.0589,-0.1536,-0.9758,0.9896
121670.0203,0.0627,-0.1515,-0.9765,0.9902
121670.0215,0.0558,-0.1503,-0.9750,0.9881
121670.0228,0.0635,-0.1555,-0.9706,0.9850
121670.0240,0.0596,-0.1510,-0.9727,0.9862
121670.0253,0.0621,-0.1540,-0.9708,0.9849
121670.0266,0.0647,-0.1557,-0.9702,0.9847
121670.0278,0.0649,-0.1581,-0.9686,0.9835
121670.0291,0.0678,-0.1572,-0.9754,0.9903
121670.0303,0.0641,-0.1598,-0.9731,0.9882
121670.0316,0.0650,-0.1577,-0.9708,0.9857
121670.0328,0.0634,-0.1566,-0.9714,0.9860
121670.0341,0.0620,-0.1562,-0.9731,0.9875
121670.0353,0.0587,-0.1602,-0.9673,0.9822
121670.0366,0.0607,-0.1574,-0.9724,0.9869
121670.0379,0.0572,-0.1605,-0.9716,0.9864
121670.0391,0.0557,-0.1547,-0.9693,0.9832
121670.0404,0.0548,-0.1591,-0.9736,0.9881
121670.0416,0.0515,-0.1601,-0.9722,0.9867
121670.0429,0.0535,-0.1560,-0.9720,0.9859
121670.0441,0.0470,-0.1577,-0.9726,0.9864
121670.0454,0.0439,-0.1611,-0.9741,0.9883
121670.0466,0.0470,-0.1628,-0.9707,0.9854
121670.0479,0.0466,-0.1593,-0.9717,0.9857
121670.0491,0.0426,-0.1660,-0.9709,0.9859
121670.0504,0.0405,-0.1669,-0.9715,0.9865
121670.0517,0.0377,-0.1707,-0.9706,0.9862
121670.0529,0.0362,-0.1739,-0.9717,0.9878
121670.0542,0.0350,-0.1739,-0.9716,0.9877
121670.0554,0.0327,-0.1779,-0.9750,0.9917
121670.0567,0.0348,-0.1785,-0.9740,0.9908
121670.0579,0.0332,-0.1811,-0.9744,0.9916
121670.0592,0.0305,-0.1806,-0.9765,0.9935
121670.0604,0.0289,-0.1750,-0.9807,0.9966
121670.0617,0.0330,-0.1730,-0.9790,0.9948
121670.0629,0.0323,-0.1729,-0.9784,0.9941
121670.0642,0.0314,-0.1685,-0.9823,0.9971
121670.0655,0.0322,-0.1615,-0.9863,0.9999
121670.0667,0.0341,-0.1596,-0.9868,1.0002
121670.0680,0.0388,-0.1514,-0.9899,1.0021
121670.0692,0.0320,-0.1472,-0.9881,0.9995
121670.0705,0.0339,-0.1456,-0.9937,1.0049
121670.0717,0.0404,-0.1394,-0.9903,1.0009
121670.0730,0.0395,-0.1369,-0.9909,1.0011
121670.0742,0.0433,-0.1354,-0.9909,1.0010
121670.0755,0.0388,-0.1390,-0.9936,1.0040
121670.0768,0.0466,-0.1349,-0.9928,1.0030
121670.0780,0.0472,-0.1334,-0.9899,0.9999
121670.0793,0.0457,-0.1337,-0.9939,1.0039
121670.0805,0.0459,-0.1403,-0.9931,1.0040
121670.0818,0.0440,-0.1395,-0.9946,1.0053
121670.0830,0.0454,-0.1438,-0.9899,1.0013
121670.0843,0.0483,-0.1420,-0.9927,1.0040
121670.0855,0.0451,-0.1472,-0.9909,1.0028
121670.0868,0.0473,-0.1474,-0.9922,1.0042
121670.0880,0.0446,-0.1490,-0.9943,1.0063
121670.0893,0.0420,-0.1536,-0.9948,1.0075
121670.0906,0.0418,-0.1528,-0.9911,1.0037
121670.0918,0.0376,-0.1563,-0.9910,1.0040
121670.0931,0.0413,-0.1612,-0.9873,1.0013
121670.0943,0.0393,-0.1598,-0.9939,1.0075
121670.0956,0.0389,-0.1569,-0.9904,1.0035
121670.0968,0.0402,-0.1562,-0.9872,1.0003
121670.0981,0.0399,-0.1550,-0.9886,1.0014
121670.0993,0.0425,-0.1515,-0.9930,1.0054
121670.1006,0.0428,-0.1523,-0.9914,1.0039
121670.1018,0.0445,-0.1501,-0.9927,1.0049
121670.1031,0.0424,-0.1505,-0.9864,0.9987
121670.1044,0.0444,-0.1500,-0.9874,0.9997
121670.1056,0.0486,-0.1487,-0.9878,1.0001
121670.1069,0.0488,-0.1446,-0.9883,1.0000
121670.1081,0.0503,-0.1475,-0.9841,0.9963
121670.1094,0.0514,-0.1465,-0.9870,0.9991
121670.1106,0.0540,-0.1472,-0.9877,1.0000
121670.1119,0.0564,-0.1468,-0.9860,0.9985
121670.1131,0.0553,-0.1474,-0.9865,0.9989
121670.1144,0.0580,-0.1472,-0.9835,0.9961
121670.1157,0.0630,-0.1465,-0.9855,0.9983
121670.1169,0.0582,-0.1446,-0.9842,0.9965
121670.1182,0.0643,-0.1426,-0.9845,0.9969
121670.1194,0.0604,-0.1392,-0.9806,0.9923
121670.1207,0.0611,-0.1431,-0.9794,0.9917
121670.1219,0.0615,-0.1457,-0.9821,0.9948
121670.1232,0.0587,-0.1492,-0.9815,0.9945
121670.1244,0.0589,-0.1414,-0.9782,0.9901
121670.1257,0.0577,-0.1451,-0.9791,0.9915
121670.1269,0.0545,-0.1463,-0.9800,0.9924
121670.1282,0.0570,-0.1458,-0.9791,0.9915
121670.1295,0.0544,-0.1434,-0.9769,0.9889
121670.1307,0.0484,-0.1455,-0.9767,0.9886
121670.1320,0.0490,-0.1488,-0.9746,0.9871
121670.1332,0.0476,-0.1513,-0.9755,0.9883
121670.1345,0.0457,-0.1526,-0.9756,0.9885
121670.1357,0.0449,-0.1512,-0.9733,0.9860
121670.1370,0.0397,-0.1537,-0.9731,0.9859
121670.1382,0.0397,-0.1546,-0.9741,0.9871
121670.1395,0.0366,-0.1500,-0.9787,0.9908
121670.1407,0.0361,-0.1535,-0.9746,0.9873
121670.1420,0.0349,-0.1514,-0.9741,0.9864
121670.1433,0.0343,-0.1548,-0.9770,0.9898
121670.1445,0.0353,-0.1556,-0.9807,0.9936
121670.1458,0.0338,-0.1539,-0.9767,0.9893
121670.1470,0.0334,-0.1567,-0.9798,0.9928
121670.1483,0.0350,-0.1545,-0.9817,0.9944
121670.1495,0.0362,-0.1513,-0.9801,0.9924
121670.1508,0.0362,-0.1506,-0.9785,0.9907
121670.1520,0.0403,-0.1507,-0.9829,0.9952
121670.1533,0.0398,-0.1489,-0.9806,0.9926
121670.1546,0.0358,-0.1480,-0.9812,0.9929
121670.1558,0.0372,-0.1432,-0.9819,0.9930
121670.1571,0.0405,-0.1490,-0.9826,0.9947
121670.1583,0.0411,-0.1508,-0.9815,0.9938
121670.1596,0.0402,-0.1500,-0.9828,0.9949
121670.1608,0.0395,-0.1495,-0.9821,0.9942
121670.1621,0.0426,-0.1522,-0.9842,0.9968
121670.1633,0.0432,-0.1537,-0.9846,0.9974
121670.1646,0.0413,-0.1530,-0.9831,0.9958
121670.1658,0.0403,-0.1573,-0.9811,0.9944
121670.1671,0.0383,-0.1580,-0.9845,0.9978
121670.1684,0.0423,-0.1578,-0.9882,1.0016
121670.1696,0.0402,-0.1606,-0.9862,1.0000
121670.1709,0.0392,-0.1579,-0.9875,1.0008
121670.1721,0.0429,-0.1543,-0.9870,0.9999
121670.1734,0.0397,-0.1557,-0.9855,0.9986
121670.1746,0.0451,-0.1571,-0.9879,1.0013
121670.1759,0.0478,-0.1585,-0.9843,0.9982
121670.1771,0.0450,-0.1611,-0.9874,1.0015
121670.1784,0.0470,-0.1622,-0.9883,1.0026
121670.1796,0.0495,-0.1657,-0.9905,1.0055
121670.1809,0.0482,-0.1615,-0.9836,0.9980
121670.1822,0.0457,-0.1647,-0.9877,1.0024
121670.1834,0.0502,-0.1648,-0.9885,1.0034
121670.1847,0.0492,-0.1589,-0.9860,0.9999
121670.1859,0.0505,-0.1559,-0.9812,0.9948
121670.1872,0.0480,-0.1536,-0.9873,1.0003
121670.1884,0.0519,-0.1540,-0.9843,0.9977
121670.1897,0.0537,-0.1507,-0.9803,0.9933
121670.1909,0.0548,-0.1458,-0.9820,0.9943
121670.1922,0.0552,-0.1451,-0.9813,0.9935
121670.1935,0.0562,-0.1428,-0.9789,0.9908
121670.1947,0.0544,-0.1454,-0.9794,0.9917
121670.1960,0.0582,-0.1468,-0.9790,0.9916
121670.1972,0.0602,-0.1478,-0.9796,0.9925
121670.1985,0.0628,-0.1488,-0.9773,0.9905
121670.1997,0.0630,-0.1481,-0.9785,0.9916
121670.2010,0.0621,-0.1470,-0.9785,0.9914
121670.2022,0.0614,-0.1525,-0.9741,0.9878
121670.2035,0.0615,-0.1497,-0.9753,0.9887
121670.2047,0.0608,-0.1531,-0.9695,0.9834
121670.2060,0.0580,-0.1541,-0.9737,0.9875
121670.2073,0.0558,-0.1543,-0.9705,0.9843
121670.2085,0.0557,-0.1529,-0.9696,0.9831
121670.2098,0.0515,-0.1564,-0.9662,0.9801
121670.2110,0.0526,-0.1542,-0.9669,0.9805
121670.2123,0.0526,-0.1543,-0.9614,0.9752
121670.2135,0.0495,-0.1566,-0.9663,0.9801
121670.2148,0.0491,-0.1585,-0.9641,0.9783
121670.2160,0.0486,-0.1503,-0.9626,0.9755
121670.2173,0.0491,-0.1537,-0.9603,0.9737
121670.2185,0.0501,-0.1557,-0.9631,0.9769
121670.2198,0.0481,-0.1548,-0.9645,0.9780
121670.2211,0.0492,-0.1567,-0.9657,0.9796
121670.2223,0.0472,-0.1547,-0.9621,0.9756
121670.2236,0.0433,-0.1524,-0.9644,0.9773
121670.2248,0.0435,-0.1561,-0.9655,0.9790
121670.2261,0.0476,-0.1539,-0.9663,0.9796
121670.2273,0.0510,-0.1503,-0.9641,0.9771
121670.2286,0.0500,-0.1500,-0.9630,0.9759
121670.2298,0.0536,-0.1536,-0.9663,0.9799
121670.2311,0.0508,-0.1540,-0.9665,0.9800
121670.2324,0.0531,-0.1506,-0.9670,0.9801
121670.2336,0.0517,-0.1503,-0.9692,0.9821
121670.2349,0.0525,-0.1556,-0.9678,0.9816
121670.2361,0.0565,-0.1552,-0.9727,0.9867
121670.2374,0.0554,-0.1539,-0.9686,0.9823
121670.2386,0.0563,-0.1569,-0.9700,0.9842
121670.2399,0.0608,-0.1523,-0.9693,0.9831
121670.2411,0.0581,-0.1558,-0.9731,0.9872
121670.2424,0.0547,-0.1585,-0.9687,0.9831
121670.2436,0.0526,-0.1562,-0.9703,0.9842
121670.2449,0.0550,-0.1581,-0.9731,0.9874
121670.2462,0.0540,-0.1570,-0.9728,0.9869
121670.2474,0.0525,-0.1575,-0.9658,0.9800
121670.2487,0.0510,-0.1586,-0.9663,0.9806
121670.2499,0.0520,-0.1560,-0.9699,0.9838
121670.2512,0.0559,-0.1582,-0.9693,0.9838
121670.2524,0.0487,-0.1578,-0.9699,0.9838
121670.2537,0.0520,-0.1603,-0.9702,0.9847
121670.2549,0.0484,-0.1579,-0.9714,0.9853
121670.2562,0.0485,-0.1569,-0.9712,0.9849
121670.2574,0.0533,-0.1595,-0.9704,0.9848
121670.2587,0.0526,-0.1547,-0.9683,0.9820
121670.2600,0.0520,-0.1585,-0.9709,0.9851
121670.2612,0.0567,-0.1593,-0.9749,0.9895
121670.2625,0.0509,-0.1564,-0.9721,0.9859
121670.2637,0.0518,-0.1564,-0.9728,0.9867
121670.2650,0.0552,-0.1578,-0.9653,0.9797
121670.2662,0.0564,-0.1576,-0.9377,0.9525
121670.2675,0.0575,-0.1560,-0.9530,0.9674
121670.2687,0.0630,-0.1568,-0.9675,0.9822
121670.2700,0.0651,-0.1553,-0.9690,0.9835
121670.2713,0.0673,-0.1574,-0.9627,0.9778
121670.2725,0.0697,-0.1601,-0.9642,0.9799
121670.2738,0.0627,-0.1591,-0.9642,0.9793
121670.2750,0.0640,-0.1559,-0.9615,0.9762
121670.2763,0.0629,-0.1568,-0.9618,0.9765
121670.2775,0.0558,-0.1600,-0.9603,0.9751
121670.2788,0.0469,-0.1614,-0.9554,0.9701
121670.2800,0.0420,-0.1677,-0.9535,0.9690
121670.2813,0.0362,-0.1649,-0.9544,0.9692
121670.2825,0.0346,-0.1642,-0.9496,0.9643
121670.2838,0.0285,-0.1666,-0.9557,0.9706
121670.2851,0.0278,-0.1649,-0.9528,0.9673
121670.2863,0.0275,-0.1674,-0.9539,0.9689
121670.2876,0.0318,-0.1648,-0.9559,0.9706
121670.2888,0.0353,-0.1659,-0.9550,0.9699
121670.2901,0.0388,-0.1659,-0.9547,0.9698
121670.2913,0.0389,-0.1679,-0.9570,0.9724
121670.2926,0.0441,-0.1652,-0.9551,0.9703
121670.2938,0.0511,-0.1655,-0.9574,0.9730
121670.2951,0.0537,-0.1667,-0.9633,0.9791
121670.2963,0.0564,-0.1666,-0.9653,0.9812
121670.2976,0.0618,-0.1624,-0.9649,0.9804
121670.2989,0.0596,-0.1574,-0.9661,0.9807
121670.3001,0.0598,-0.1535,-0.9678,0.9817
121670.3014,0.0625,-0.1502,-0.9704,0.9840
121670.3026,0.0596,-0.1451,-0.9690,0.9816
121670.3039,0.0591,-0.1427,-0.9731,0.9853
121670.3051,0.0620,-0.1373,-0.9752,0.9868
121670.3064,0.0560,-0.1345,-0.9730,0.9839
121670.3076,0.0601,-0.1344,-0.9792,0.9903
121670.3089,0.0560,-0.1348,-0.9781,0.9889
121670.3101,0.0535,-0.1349,-0.9796,0.9903
121670.3114,0.0562,-0.1350,-0.9848,0.9956
121670.3127,0.0535,-0.1340,-0.9896,1.0000
121670.3139,0.0573,-0.1370,-0.9871,0.9982
121670.3152,0.0530,-0.1356,-0.9862,0.9969
121670.3164,0.0533,-0.1399,-0.9931,1.0044
121670.3177,0.0567,-0.1363,-0.9936,1.0045
121670.3189,0.0594,-0.1388,-0.9924,1.0038
121670.3202,0.0580,-0.1427,-0.9964,1.0083
121670.3214,0.0625,-0.1431,-0.9961,1.0082
121670.3227,0.0618,-0.1437,-0.9956,1.0078
121670.3240,0.0612,-0.1447,-0.9962,1.0085
121670.3252,0.0639,-0.1505,-0.9963,1.0096
121670.3265,0.0622,-0.1472,-0.9996,1.0123
121670.3277,0.0659,-0.1508,-0.9970,1.0105
121670.3290,0.0670,-0.1511,-1.0013,1.0149
121670.3302,0.0651,-0.1503,-1.0046,1.0179
121670.3315,0.0668,-0.1515,-1.0013,1.0149
121670.3327,0.0642,-0.1486,-1.0035,1.0165
121670.3340,0.0682,-0.1508,-0.9999,1.0135
121670.3352,0.0664,-0.1466,-1.0025,1.0153
121670.3365,0.0699,-0.1409,-1.0072,1.0194
121670.3378,0.0707,-0.1418,-1.0049,1.0173
121670.3390,0.0689,-0.1463,-1.0043,1.0173
121670.3403,0.0703,-0.1452,-1.0034,1.0163
121670.3415,0.0686,-0.1456,-1.0088,1.0215
121670.3428,0.0658,-0.1438,-1.0112,1.0235
121670.3440,0.0629,-0.1465,-1.0106,1.0231
121670.3453,0.0617,-0.1395,-1.0075,1.0189
121670.3465,0.0581,-0.1406,-1.0062,1.0176
121670.3478,0.0548,-0.1378,-1.0103,1.0212
121670.3490,0.0534,-0.1316,-1.0069,1.0169
121670.3503,0.0470,-0.1380,-1.0079,1.0184
121670.3516,0.0482,-0.1395,-1.0063,1.0170
121670.3528,0.0447,-0.1461,-1.0032,1.0148
121670.3541,0.0420,-0.1484,-0.9978,1.0096
121670.3553,0.0458,-0.1555,-1.0004,1.0135
121670.3566,0.0428,-0.1559,-0.9978,1.0109
121670.3578,0.0441,-0.1509,-0.9913,1.0037
121670.3591,0.0385,-0.1322,-0.9849,0.9945
121670.3603,0.0388,-0.1292,-0.9866,0.9958
121670.3616,0.0399,-0.1297,-1.0014,1.0106
121670.3629,0.0483,-0.1282,-0.9989,1.0082
121670.3641,0.0496,-0.1189,-1.0049,1.0132
121670.3654,0.0536,-0.1145,-1.0001,1.0080
121670.3666,0.0525,-0.1100,-0.9996,1.0070
121670.3679,0.0620,-0.1067,-0.9909,0.9985
121670.3691,0.0730,-0.0985,-0.9927,1.0002
121670.3704,0.0768,-0.1029,-0.9932,1.0014
121670.3716,0.0901,-0.0941,-0.9857,0.9942
121670.3729,0.0997,-0.0918,-0.9864,0.9957
121670.3741,0.1179,-0.0896,-0.9844,0.9955
121670.3754,0.1237,-0.0982,-0.9910,1.0035
121670.3767,0.1321,-0.0952,-0.9925,1.0058
121670.3779,0.1296,-0.0798,-0.9835,0.9952
121670.3792,0.1414,-0.0823,-0.9710,0.9847
121670.3804,0.1365,-0.0923,-0.9738,0.9876
121670.3817,0.1363,-0.1055,-0.9936,1.0085
121670.3829,0.1342,-0.1095,-1.0087,1.0235
121670.3842,0.1266,-0.1121,-1.0210,1.0349
121670.3854,0.1159,-0.1196,-1.0222,1.0357
121670.3867,0.0994,-0.1206,-1.0155,1.0275
121670.3879,0.0797,-0.1296,-1.0089,1.0203
121670.3892,0.0534,-0.1413,-0.9978,1.0092
121670.3905,0.0357,-0.1541,-0.9969,1.0094
121670.3917,0.0157,-0.1684,-0.9895,1.0038
121670.3930,-0.0064,-0.1680,-0.9858,1.0000
121670.3942,-0.0193,-0.1723,-0.9785,0.9938
121670.3955,-0.0346,-0.1716,-0.9700,0.9856
121670.3967,-0.0498,-0.1719,-0.9668,0.9833
121670.3980,-0.0537,-0.1713,-0.9635,0.9801
121670.3992,-0.0560,-0.1668,-0.9626,0.9786
121670.4005,-0.0564,-0.1773,-0.9619,0.9797
121670.4018,-0.0492,-0.1779,-0.9671,0.9846
121670.4030,-0.0387,-0.1834,-0.9658,0.9838
121670.4043,-0.0356,-0.1870,-0.9690,0.9875
121670.4055,-0.0214,-0.1928,-0.9680,0.9872
121670.4068,-0.0147,-0.2005,-0.9702,0.9908
121670.4080,-0.0035,-0.2059,-0.9643,0.9861
121670.4093,0.0081,-0.2076,-0.9667,0.9887
121670.4105,0.0250,-0.2142,-0.9656,0.9894
121670.4118,0.0359,-0.2192,-0.9646,0.9898
121670.4130,0.0452,-0.2206,-0.9663,0.9922
121670.4143,0.0535,-0.2280,-0.9628,0.9909
121670.4156,0.0606,-0.2339,-0.9629,0.9927
121670.4168,0.0678,-0.2327,-0.9634,0.9934
121670.4181,0.0740,-0.2435,-0.9572,0.9904
121670.4193,0.0782,-0.2421,-0.9550,0.9883
121670.4206,0.0846,-0.2509,-0.9531,0.9892
121670.4218,0.0878,-0.2505,-0.9516,0.9880
121670.4231,0.0952,-0.2619,-0.9486,0.9887
121670.4243,0.1060,-0.2709,-0.9375,0.9816
121670.4256,0.1210,-0.2992,-0.9223,0.9772
121670.4269,0.1044,-0.3127,-0.9197,0.9770
121670.4281,0.0884,-0.3075,-0.9290,0.9826
121670.4294,0.0881,-0.3014,-0.9498,1.0003
121670.4306,0.0943,-0.2961,-0.9578,1.0070
121670.4319,0.0931,-0.2881,-0.9525,0.9995
121670.4331,0.0931,-0.2816,-0.9441,0.9896
121670.4344,0.0854,-0.2782,-0.9399,0.9839
121670.4356,0.0782,-0.2650,-0.9338,0.9738
121670.4369,0.0800,-0.2602,-0.9316,0.9706
121670.4381,0.0810,-0.2541,-0.9292,0.9668
121670.4394,0.0806,-0.2442,-0.9388,0.9733
121670.4407,0.0950,-0.2381,-0.9367,0.9711
121670.4419,0.0973,-0.2303,-0.9383,0.9710
121670.4432,0.1060,-0.2302,-0.9401,0.9737
121670.4444,0.1040,-0.2228,-0.9482,0.9796
121670.4457,0.0977,-0.2227,-0.9474,0.9781
121670.4469,0.0918,-0.2155,-0.9426,0.9713
121670.4482,0.0884,-0.2166,-0.9415,0.9702
121670.4494,0.0834,-0.2213,-0.9371,0.9664
121670.4507,0.0775,-0.2193,-0.9391,0.9675
121670.4519,0.0650,-0.2159,-0.9412,0.9678
121670.4532,0.0581,-0.2167,-0.9468,0.9730
121670.4545,0.0479,-0.2073,-0.9449,0.9686
121670.4557,0.0464,-0.2006,-0.9485,0.9706
121670.4570,0.0426,-0.2004,-0.9461,0.9681
121670.4582,0.0464,-0.1910,-0.9527,0.9728
121670.4595,0.0492,-0.1865,-0.9561,0.9754
121670.4607,0.0540,-0.1826,-0.9552,0.9740
121670.4620,0.0530,-0.1801,-0.9566,0.9749
121670.4632,0.0502,-0.1768,-0.9577,0.9752
121670.4645,0.0489,-0.1734,-0.9598,0.9766
121670.4657,0.0486,-0.1755,-0.9660,0.9830
121670.4670,0.0551,-0.1722,-0.9727,0.9894
121670.4683,0.0539,-0.1726,-0.9727,0.9894
121670.4695,0.0574,-0.1723,-0.9795,0.9962
121670.4708,0.0545,-0.1709,-0.9820,0.9982
121670.4720,0.0534,-0.1703,-0.9821,0.9982
121670.4733,0.0491,-0.1698,-0.9808,0.9966
121670.4745,0.0495,-0.1708,-0.9814,0.9973
121670.4758,0.0484,-0.1683,-0.9796,0.9951
121670.4770,0.0515,-0.1677,-0.9798,0.9953
121670.4783,0.0506,-0.1659,-0.9849,1.0001
121670.4796,0.0521,-0.1665,-0.9875,1.0028
121670.4808,0.0506,-0.1627,-0.9915,1.0061
121670.4821,0.0520,-0.1590,-0.9921,1.0061
121670.4833,0.0557,-0.1558,-0.9954,1.0091
121670.4846,0.0528,-0.1571,-0.9944,1.0082
121670.4858,0.0518,-0.1488,-0.9917,1.0041
121670.4871,0.0575,-0.1451,-0.9931,1.0053
121670.4883,0.0586,-0.1445,-0.9960,1.0082
121670.4896,0.0582,-0.1420,-0.9987,1.0105
121670.4908,0.0572,-0.1406,-1.0063,1.0177
121670.4921,0.0592,-0.1394,-1.0030,1.0143
121670.4934,0.0609,-0.1359,-1.0021,1.0131
121670.4946,0.0637,-0.1320,-1.0000,1.0107
121670.4959,0.0631,-0.1308,-0.9972,1.0077
121670.4971,0.0642,-0.1296,-1.0011,1.0115
121670.4984,0.0605,-0.1302,-1.0019,1.0121
121670.4996,0.0625,-0.1285,-0.9948,1.0050
121670.5009,0.0664,-0.1271,-1.0009,1.0112
121670.5021,0.0652,-0.1281,-1.0023,1.0125
121670.5034,0.0660,-0.1263,-1.0003,1.0104
121670.5046,0.0671,-0.1278,-1.0005,1.0109
121670.5059,0.0631,-0.1292,-0.9996,1.0099
121670.5072,0.0664,-0.1277,-0.9996,1.0099
121670.5084,0.0682,-0.1270,-0.9990,1.0094
121670.5097,0.0661,-0.1299,-1.0033,1.0139
121670.5109,0.0643,-0.1316,-1.0037,1.0143
121670.5122,0.0634,-0.1339,-0.9988,1.0097
121670.5134,0.0636,-0.1384,-0.9991,1.0106
121670.5147,0.0580,-0.1404,-0.9969,1.0084
121670.5159,0.0526,-0.1408,-0.9931,1.0044
121670.5172,0.0586,-0.1428,-0.9946,1.0065
121670.5185,0.0534,-0.1446,-0.9926,1.0045
121670.5197,0.0501,-0.1452,-0.9880,0.9999
121670.5210,0.0466,-0.1406,-0.9919,1.0029
121670.5222,0.0455,-0.1416,-0.9860,0.9972
121670.5235,0.0462,-0.1468,-0.9850,0.9969
121670.5247,0.0507,-0.1459,-0.9849,0.9970
121670.5260,0.0473,-0.1419,-0.9866,0.9979
121670.5272,0.0430,-0.1428,-0.9876,0.9988
121670.5285,0.0464,-0.1438,-0.9886,1.0001
121670.5297,0.0445,-0.1417,-0.9871,0.9982
121670.5310,0.0443,-0.1400,-0.9871,0.9980
121670.5323,0.0445,-0.1420,-0.9884,0.9995
121670.5335,0.0396,-0.1396,-0.9872,0.9978
121670.5348,0.0384,-0.1365,-0.9842,0.9943
121670.5360,0.0366,-0.1403,-0.9848,0.9955
121670.5373,0.0354,-0.1373,-0.9848,0.9950
121670.5385,0.0357,-0.1400,-0.9831,0.9936
121670.5398,0.0345,-0.1360,-0.9854,0.9953
121670.5410,0.0284,-0.1347,-0.9817,0.9913
121670.5423,0.0243,-0.1362,-0.9811,0.9908
121670.5435,0.0254,-0.1348,-0.9857,0.9952
121670.5448,-0.0004,-0.1282,-0.9806,0.9889
121670.5461,-0.4142,-0.0187,-0.9336,1.0215
121670.5473,-0.1351,-0.1518,-0.8972,0.9199
121670.5486,0.4637,-0.2930,-1.0504,1.1850
121670.5498,0.5496,-0.2751,-1.1269,1.2836
121670.5511,1.1826,-0.3952,-1.1852,1.7202
121670.5523,0.4101,-0.0677,-1.1625,1.2346
121670.5536,-1.0863,0.2778,-0.7693,1.3598
121670.5548,-1.4860,0.2714,-0.5782,1.6174
121670.5561,-1.8285,0.2321,-0.5347,1.9192
121670.5574,-0.5070,-0.2706,-0.7219,0.9227
121670.5586,1.6019,-0.7833,-1.2834,2.1969
121670.5599,2.3683,-0.8283,-1.6755,3.0170
121670.5611,2.2934,-0.5415,-1.6402,2.8711
121670.5624,0.6852,0.0166,-1.2347,1.4122
121670.5636,-2.3730,0.8186,-0.4850,2.5566
121670.5649,-2.9616,0.6375,-0.0657,3.0301
121670.5661,-1.0014,-0.1286,-0.3861,1.0809
121670.5674,0.2577,-0.4774,-0.9568,1.0999
121670.5686,1.5426,-0.7428,-1.4921,2.2710
121670.5699,1.8102,-0.5811,-1.6190,2.4971
121670.5712,0.6682,-0.1468,-1.3044,1.4729
121670.5724,-0.0925,0.0592,-0.9131,0.9197
121670.5737,-0.7398,0.1552,-0.7058,1.0342
121670.5749,-0.9585,0.0876,-0.6605,1.1673
121670.5762,-0.0405,-0.2253,-0.8084,0.8402
121670.5774,0.0907,-0.2370,-0.9983,1.0300
121670.5787,0.2188,-0.2318,-1.0403,1.0881
121670.5799,0.3853,-0.2364,-1.0781,1.1690
121670.5812,-0.0539,-0.0901,-1.0292,1.0345
121670.5824,0.0165,-0.1460,-0.9765,0.9875
121670.5837,0.1459,-0.1802,-0.9927,1.0195
121670.5850,0.0378,-0.1471,-0.9703,0.9821
121670.5862,0.0786,-0.1694,-0.9564,0.9744
121670.5875,0.0564,-0.1479,-0.9421,0.9553
121670.5887,0.0610,-0.1601,-0.9635,0.9786
121670.5900,0.0635,-0.1531,-0.9751,0.9891
121670.5912,0.0546,-0.1503,-0.9756,0.9887
121670.5925,0.0604,-0.1507,-0.9840,0.9973
121670.5937,0.0561,-0.1477,-0.9672,0.9800
121670.5950,0.0579,-0.1488,-0.9750,0.9880
121670.5962,0.0631,-0.1616,-0.9784,0.9937
121670.5975,0.0588,-0.1541,-0.9681,0.9821
121670.5988,0.0599,-0.1577,-0.9777,0.9922
121670.6000,0.0629,-0.1638,-0.9787,0.9943
121670.6013,0.0566,-0.1518,-0.9748,0.9882
121670.6025,0.0646,-0.1678,-0.9830,0.9993
121670.6038,0.0574,-0.1566,-0.9747,0.9889
121670.6050,0.0573,-0.1566,-0.9798,0.9939
121670.6063,0.0572,-0.1610,-0.9843,0.9991
121670.6075,0.0515,-0.1556,-0.9774,0.9910
121670.6088,0.0523,-0.1596,-0.9824,0.9967
121670.6101,0.0485,-0.1567,-0.9852,0.9988
121670.6113,0.0497,-0.1586,-0.9889,1.0028
121670.6126,0.0529,-0.1555,-0.9964,1.0098
121670.6138,0.0466,-0.1539,-0.9893,1.0022
121670.6151,0.0443,-0.1510,-0.9881,1.0005
121670.6163,0.0423,-0.1567,-0.9900,1.0032
121670.6176,0.0374,-0.1457,-0.9841,0.9956
121670.6188,0.0424,-0.1499,-0.9883,1.0005
121670.6201,0.0413,-0.1460,-0.9858,0.9974
121670.6213,0.0359,-0.1410,-0.9804,0.9911
121670.6226,0.0443,-0.1471,-0.9896,1.0014
121670.6239,0.0397,-0.1361,-0.9856,0.9957
121670.6251,0.0411,-0.1390,-0.9804,0.9910
121670.6264,0.0470,-0.1389,-0.9860,0.9968
121670.6276,0.0412,-0.1346,-0.9784,0.9885
121670.6289,0.0471,-0.1357,-0.9811,0.9915
121670.6301,0.0488,-0.1337,-0.9817,0.9920
121670.6314,0.0469,-0.1291,-0.9780,0.9876
121670.6326,0.0539,-0.1328,-0.9833,0.9936
121670.6339,0.0524,-0.1266,-0.9752,0.9848
121670.6351,0.0529,-0.1301,-0.9797,0.9898
121670.6364,0.0560,-0.1328,-0.9837,0.9942
121670.6377,0.0535,-0.1278,-0.9809,0.9906
121670.6389,0.0620,-0.1324,-0.9790,0.9899
121670.6402,0.0585,-0.1311,-0.9767,0.9871
121670.6414,0.0612,-0.1269,-0.9714,0.9816
121670.6427,0.0629,-0.1309,-0.9738,0.9846
121670.6439,0.0591,-0.1248,-0.9712,0.9810
121670.6452,0.0642,-0.1305,-0.9696,0.9805
121670.6464,0.0644,-0.1281,-0.9699,0.9804
121670.6477,0.0628,-0.1283,-0.9652,0.9757
121670.6490,0.0679,-0.1304,-0.9639,0.9751
121670.6502,0.0666,-0.1286,-0.9626,0.9734
121670.6515,0.0672,-0.1314,-0.9569,0.9682
121670.6527,0.0681,-0.1356,-0.9574,0.9694
121670.6540,0.0663,-0.1320,-0.9576,0.9690
121670.6552,0.0683,-0.1371,-0.9572,0.9694
121670.6565,0.0680,-0.1353,-0.9587,0.9706
121670.6577,0.0678,-0.1371,-0.9545,0.9666
121670.6590,0.0694,-0.1433,-0.9547,0.9679
121670.6602,0.0677,-0.1434,-0.9546,0.9677
121670.6615,0.0672,-0.1450,-0.9532,0.9665
121670.6628,0.0693,-0.1477,-0.9543,0.9682
121670.6640,0.0646,-0.1428,-0.9541,0.9669
121670.6653,0.0665,-0.1480,-0.9543,0.9680
121670.6665,0.0634,-0.1427,-0.9544,0.9671
121670.6678,0.0651,-0.1441,-0.9492,0.9623
121670.6690,0.0649,-0.1449,-0.9527,0.9658
121670.6703,0.0645,-0.1471,-0.9530,0.9664
121670.6715,0.0643,-0.1464,-0.9499,0.9632
121670.6728,0.0675,-0.1496,-0.9519,0.9660
121670.6741,0.0673,-0.1446,-0.9553,0.9685
121670.6753,0.0676,-0.1489,-0.9538,0.9678
121670.6766,0.0664,-0.1481,-0.9513,0.9650
121670.6778,0.0669,-0.1443,-0.9547,0.9679
121670.6791,0.0673,-0.1506,-0.9527,0.9669
121670.6803,0.0644,-0.1453,-0.9560,0.9691
121670.6816,0.0623,-0.1525,-0.9522,0.9664
121670.6828,0.0645,-0.1515,-0.9576,0.9716
121670.6841,0.0621,-0.1495,-0.9568,0.9704
121670.6853,0.0592,-0.1522,-0.9583,0.9722
121670.6866,0.0548,-0.1522,-0.9614,0.9749
121670.6879,0.0556,-0.1541,-0.9570,0.9709
121670.6891,0.0524,-0.1510,-0.9580,0.9712
121670.6904,0.0451,-0.1487,-0.9630,0.9755
121670.6916,0.0466,-0.1533,-0.9636,0.9768
121670.6929,0.0430,-0.1547,-0.9617,0.9750
121670.6941,0.0441,-0.1451,-0.9640,0.9759
121670.6954,0.0454,-0.1482,-0.9565,0.9689
121670.6966,0.0425,-0.1429,-0.9606,0.9721
121670.6979,0.0364,-0.1440,-0.9608,0.9722
121670.6991,0.0441,-0.1457,-0.9612,0.9732
121670.7004,0.0368,-0.1423,-0.9576,0.9688
121670.7017,0.0401,-0.1423,-0.9615,0.9728
121670.7029,0.0394,-0.1428,-0.9626,0.9739
121670.7042,0.0363,-0.1457,-0.9641,0.9757
121670.7054,0.0367,-0.1418,-0.9601,0.9712
121670.7067,0.0342,-0.1413,-0.9654,0.9763
121670.7079,0.0367,-0.1452,-0.9682,0.9797
121670.7092,0.0345,-0.1402,-0.9661,0.9768
121670.7104,0.0321,-0.1397,-0.9675,0.9780
121670.7117,0.0371,-0.1416,-0.9647,0.9757
121670.7130,0.0279,-0.1407,-0.9694,0.9799
121670.7142,0.0346,-0.1440,-0.9667,0.9780
121670.7155,0.0337,-0.1421,-0.9679,0.9789
121670.7167,0.0333,-0.1411,-0.9731,0.9838
121670.7180,0.0314,-0.1416,-0.9710,0.9818
121670.7192,0.0317,-0.1409,-0.9684,0.9791
121670.7205,0.0308,-0.1396,-0.9744,0.9848
121670.7217,0.0320,-0.1422,-0.9747,0.9855
121670.7230,0.0320,-0.1405,-0.9681,0.9787
121670.7242,0.0316,-0.1391,-0.9773,0.9877
121670.7255,0.0335,-0.1437,-0.9733,0.9845
121670.7268,0.0290,-0.1391,-0.9759,0.9862
121670.7280,0.0347,-0.1440,-0.9750,0.9861
121670.7293,0.0329,-0.1420,-0.9738,0.9847
121670.7305,0.0329,-0.1435,-0.9761,0.9871
121670.7318,0.0322,-0.1449,-0.9748,0.9860
121670.7330,0.0291,-0.1436,-0.9769,0.9878
121670.7343,0.0301,-0.1419,-0.9745,0.9853
121670.7355,0.0280,-0.1438,-0.9778,0.9887
121670.7368,0.0276,-0.1411,-0.9760,0.9865
121670.7380,0.0313,-0.1451,-0.9767,0.9880
121670.7393,0.0326,-0.1456,-0.9765,0.9878
121670.7406,0.0294,-0.1435,-0.9761,0.9870
121670.7418,0.0312,-0.1465,-0.9777,0.9891
121670.7431,0.0345,-0.1429,-0.9780,0.9890
121670.7443,0.0293,-0.1438,-0.9789,0.9899
121670.7456,0.0322,-0.1481,-0.9789,0.9906
121670.7468,0.0316,-0.1469,-0.9769,0.9884
121670.7481,0.0346,-0.1437,-0.9778,0.9889
121670.7493,0.0302,-0.1430,-0.9826,0.9934
121670.7506,0.0362,-0.1406,-0.9831,0.9938
121670.7518,0.0377,-0.1434,-0.9868,0.9979
121670.7531,0.0327,-0.1417,-0.9802,0.9910
121670.7544,0.0376,-0.1420,-0.9832,0.9941
121670.7556,0.0340,-0.1382,-0.9816,0.9918
121670.7569,0.0350,-0.1372,-0.9821,0.9922
121670.7581,0.0383,-0.1366,-0.9830,0.9932
121670.7594,0.0372,-0.1353,-0.9796,0.9896
121670.7606,0.0361,-0.1387,-0.9839,0.9943
121670.7619,0.0391,-0.1350,-0.9822,0.9922
121670.7631,0.0367,-0.1347,-0.9799,0.9898
121670.7644,0.0383,-0.1343,-0.9835,0.9933
121670.7657,0.0397,-0.1372,-0.9824,0.9927
121670.7669,0.0386,-0.1330,-0.9830,0.9927
121670.7682,0.0370,-0.1369,-0.9816,0.9918
121670.7694,0.0372,-0.1344,-0.9802,0.9901
121670.7707,0.0351,-0.1365,-0.9841,0.9941
121670.7719,0.0398,-0.1370,-0.9811,0.9914
121670.7732,0.0388,-0.1383,-0.9848,0.9952
121670.7744,0.0359,-0.1373,-0.9840,0.9942
121670.7757,0.0345,-0.1381,-0.9872,0.9974
121670.7769,0.0327,-0.1356,-0.9865,0.9963
121670.7782,0.0344,-0.1351,-0.9867,0.9965
121670.7795,0.0314,-0.1345,-0.9886,0.9983
121670.7807,0.0292,-0.1364,-0.9841,0.9939
121670.7820,0.0276,-0.1389,-0.9823,0.9925
121670.7832,0.0274,-0.1333,-0.9848,0.9942
121670.7845,0.0288,-0.1336,-0.9845,0.9940
121670.7857,0.0263,-0.1313,-0.9892,0.9982
121670.7870,0.0261,-0.1327,-0.9877,0.9969
121670.7882,0.0254,-0.1294,-0.9897,0.9985
121670.7895,0.0273,-0.1333,-0.9896,0.9989
121670.7907,0.0281,-0.1279,-0.9883,0.9969
121670.7920,0.0287,-0.1234,-0.9946,1.0026
121670.7933,0.0242,-0.1239,-0.9965,1.0045
121670.7945,0.0257,-0.1272,-0.9955,1.0039
121670.7958,0.0242,-0.1238,-0.9898,0.9978
121670.7970,0.0271,-0.1189,-0.9890,0.9964
121670.7983,0.0253,-0.1216,-0.9864,0.9941
121670.7995,0.0253,-0.1194,-0.9843,0.9918
121670.8008,0.0239,-0.1194,-0.9890,0.9964
121670.8020,0.0248,-0.1176,-0.9890,0.9963
121670.8033,0.0273,-0.1213,-0.9877,0.9955
121670.8046,0.0256,-0.1196,-0.9911,0.9986
121670.8058,0.0295,-0.1177,-0.9891,0.9965
121670.8071,0.0269,-0.1170,-0.9906,0.9979
121670.8083,0.0280,-0.1167,-0.9857,0.9930
121670.8096,0.0261,-0.1174,-0.9861,0.9934
121670.8108,0.0275,-0.1190,-0.9873,0.9948
121670.8121,0.0297,-0.1191,-0.9889,0.9965
121670.8133,0.0269,-0.1194,-0.9882,0.9957
121670.8146,0.0311,-0.1206,-0.9927,1.0004
121670.8158,0.0300,-0.1194,-0.9884,0.9960
121670.8171,0.0312,-0.1237,-0.9883,0.9965
121670.8184,0.0320,-0.1226,-0.9926,1.0007
121670.8196,0.0311,-0.1233,-0.9878,0.9959
121670.8209,0.0325,-0.1257,-0.9884,0.9969
121670.8221,0.0307,-0.1250,-0.9862,0.9945
121670.8234,0.0322,-0.1259,-0.9894,0.9979
121670.8246,0.0318,-0.1279,-0.9856,0.9944
121670.8259,0.0330,-0.1266,-0.9852,0.9939
121670.8271,0.0339,-0.1297,-0.9868,0.9958
121670.8284,0.0351,-0.1324,-0.9858,0.9953
121670.8296,0.0359,-0.1325,-0.9836,0.9931
121670.8309,0.0384,-0.1328,-0.9889,0.9985
121670.8322,0.0367,-0.1345,-0.9870,0.9968
121670.8334,0.0390,-0.1344,-0.9816,0.9916
121670.8347,0.0367,-0.1373,-0.9823,0.9925
121670.8359,0.0350,-0.1366,-0.9863,0.9964
121670.8372,0.0393,-0.1399,-0.9852,0.9958
121670.8384,0.0375,-0.1410,-0.9828,0.9936
121670.8397,0.0376,-0.1410,-0.9856,0.9964
121670.8409,0.0349,-0.1395,-0.9849,0.9953
121670.8422,0.0395,-0.1416,-0.9853,0.9962
121670.8435,0.0379,-0.1427,-0.9835,0.9945
121670.8447,0.0383,-0.1375,-0.9870,0.9973
121670.8460,0.0372,-0.1427,-0.9857,0.9967
121670.8472,0.0400,-0.1417,-0.9852,0.9961
121670.8485,0.0378,-0.1425,-0.9862,0.9972
121670.8497,0.0390,-0.1418,-0.9871,0.9980
121670.8510,0.0401,-0.1421,-0.9882,0.9992
121670.8522,0.0398,-0.1404,-0.9869,0.9976
121670.8535,0.0385,-0.1380,-0.9876,0.9979
121670.8547,0.0412,-0.1433,-0.9888,1.0000
121670.8560,0.0371,-0.1425,-0.9841,0.9951
121670.8573,0.0400,-0.1402,-0.9871,0.9978
121670.8585,0.0388,-0.1414,-0.9889,0.9997
121670.8598,0.0383,-0.1418,-0.9900,1.0008
121670.8610,0.0397,-0.1364,-0.9871,0.9973
121670.8623,0.0355,-0.1373,-0.9868,0.9970
121670.8635,0.0391,-0.1396,-0.9915,1.0020
121670.8648,0.0382,-0.1380,-0.9843,0.9947
121670.8660,0.0360,-0.1335,-0.9877,0.9974
121670.8673,0.0362,-0.1359,-0.9901,1.0001
121670.8685,0.0355,-0.1387,-0.9910,1.0012
121670.8698,0.0342,-0.1387,-0.9904,1.0007
121670.8711,0.0309,-0.1328,-0.9883,0.9977
121670.8723,0.0323,-0.1349,-0.9848,0.9945
121670.8736,0.0318,-0.1375,-0.9899,0.9999
121670.8748,0.0294,-0.1337,-0.9917,1.0011
121670.8761,0.0315,-0.1366,-0.9899,0.9998
121670.8773,0.0301,-0.1329,-0.9849,0.9943
121670.8786,0.0249,-0.1339,-0.9840,0.9934
121670.8798,0.0270,-0.1317,-0.9862,0.9953
121670.8811,0.0260,-0.1306,-0.9845,0.9935
121670.8823,0.0280,-0.1285,-0.9840,0.9927
121670.8836,0.0277,-0.1318,-0.9826,0.9918
121670.8849,0.0257,-0.1312,-0.9793,0.9883
121670.8861,0.0264,-0.1329,-0.9818,0.9911
121670.8874,0.0270,-0.1328,-0.9821,0.9914
121670.8886,0.0250,-0.1280,-0.9908,0.9994
121670.8899,0.0251,-0.1287,-0.9871,0.9957
121670.8911,0.0242,-0.1298,-0.9881,0.9969
121670.8924,0.0281,-0.1280,-0.9930,1.0016
121670.8936,0.0255,-0.1288,-0.9905,0.9992
121670.8949,0.0265,-0.1284,-0.9868,0.9955
121670.8962,0.0285,-0.1245,-0.9794,0.9877
121670.8974,0.0259,-0.1246,-0.9819,0.9901
121670.8987,0.0230,-0.1251,-0.9757,0.9839
121670.8999,0.0278,-0.1250,-0.9790,0.9873
121670.9012,0.0292,-0.1208,-0.9809,0.9888
121670.9024,0.0291,-0.1257,-0.9803,0.9887
121670.9037,0.0308,-0.1207,-0.9808,0.9886
121670.9049,0.0332,-0.1193,-0.9786,0.9864
121670.9062,0.0340,-0.1186,-0.9807,0.9884
121670.9074,0.0372,-0.1158,-0.9792,0.9867
121670.9087,0.0380,-0.1140,-0.9763,0.9837
121670.9100,0.0411,-0.1149,-0.9812,0.9887
121670.9112,0.0402,-0.1134,-0.9829,0.9902
121670.9125,0.0413,-0.1117,-0.9787,0.9859
121670.9137,0.0414,-0.1132,-0.9793,0.9867
121670.9150,0.0397,-0.1110,-0.9807,0.9877
121670.9162,0.0397,-0.1133,-0.9804,0.9877
121670.9175,0.0447,-0.1109,-0.9821,0.9893
121670.9187,0.0457,-0.1107,-0.9823,0.9895
121670.9200,0.0449,-0.1109,-0.9779,0.9852
121670.9213,0.0476,-0.1123,-0.9795,0.9871
121670.9225,0.0465,-0.1131,-0.9803,0.9879
121670.9238,0.0492,-0.1131,-0.9843,0.9920
121670.9250,0.0488,-0.1136,-0.9877,0.9954
121670.9263,0.0529,-0.1126,-0.9853,0.9931
121670.9275,0.0494,-0.1123,-0.9847,0.9923
121670.9288,0.0500,-0.1155,-0.9825,0.9905
121670.9300,0.0521,-0.1160,-0.9874,0.9956
121670.9313,0.0515,-0.1142,-0.9873,0.9952
121670.9325,0.0484,-0.1142,-0.9860,0.9938
121670.9338,0.0537,-0.1153,-0.9899,0.9981
121670.9351,0.0556,-0.1164,-0.9902,0.9985
121670.9363,0.0526,-0.1168,-0.9905,0.9988
121670.9376,0.0516,-0.1134,-0.9908,0.9986
121670.9388,0.0546,-0.1195,-0.9944,1.0031
121670.9401,0.0537,-0.1188,-0.9958,1.0043
121670.9413,0.0501,-0.1188,-0.9933,1.0017
121670.9426,0.0517,-0.1168,-0.9951,1.0032
121670.9438,0.0526,-0.1180,-0.9975,1.0058
121670.9451,0.0528,-0.1211,-0.9946,1.0034
121670.9463,0.0502,-0.1171,-1.0000,1.0081
121670.9476,0.0526,-0.1194,-1.0014,1.0099
121670.9489,0.0523,-0.1195,-1.0016,1.0101
121670.9501,0.0514,-0.1179,-1.0010,1.0092
121670.9514,0.0475,-0.1187,-1.0049,1.0129
121670.9526,0.0502,-0.1235,-1.0024,1.0113
121670.9539,0.0509,-0.1175,-1.0022,1.0103
121670.9551,0.0488,-0.1201,-1.0040,1.0123
121670.9564,0.0460,-0.1214,-1.0028,1.0112
121670.9576,0.0466,-0.1193,-1.0038,1.0119
121670.9589,0.0474,-0.1160,-1.0077,1.0154
121670.9602,0.0467,-0.1188,-1.0063,1.0143
121670.9614,0.0488,-0.1202,-1.0051,1.0134
121670.9627,0.0497,-0.1214,-1.0088,1.0173
121670.9639,0.0511,-0.1223,-1.0047,1.0134
121670.9652,0.0488,-0.1168,-1.0092,1.0172
121670.9664,0.0538,-0.1198,-1.0068,1.0153
121670.9677,0.0510,-0.1173,-1.0080,1.0161
121670.9689,0.0541,-0.1207,-1.0111,1.0197
121670.9702,0.0525,-0.1216,-1.0085,1.0171
121670.9714,0.0551,-0.1236,-1.0093,1.0184
121670.9727,0.0476,-0.1239,-1.0079,1.0166
121670.9740,0.0521,-0.1220,-1.0101,1.0187
121670.9752,0.0504,-0.1220,-1.0088,1.0174
121670.9765,0.0556,-0.1226,-1.0145,1.0234
121670.9777,0.0531,-0.1217,-1.0080,1.0167
121670.9790,0.0547,-0.1254,-1.0048,1.0141
121670.9802,0.0540,-0.1279,-1.0057,1.0153
121670.9815,0.0531,-0.1298,-1.0040,1.0137
121670.9827,0.0561,-0.1281,-1.0034,1.0131
121670.9840,0.0576,-0.1279,-1.0070,1.0167
121670.9852,0.0583,-0.1282,-1.0002,1.0101
121670.9865,0.0568,-0.1298,-0.9977,1.0077
121670.9878,0.0573,-0.1345,-0.9995,1.0102
121670.9890,0.0615,-0.1290,-0.9964,1.0066
121670.9903,0.0615,-0.1338,-0.9940,1.0049
121670.9915,0.0571,-0.1349,-0.9973,1.0080
121670.9928,0.0612,-0.1337,-0.9920,1.0028
121670.9940,0.0603,-0.1371,-0.9911,1.0024
121670.9953,0.0635,-0.1343,-0.9896,1.0007
121670.9965,0.0631,-0.1362,-0.9838,0.9952
121670.9978,0.0652,-0.1402,-0.9868,0.9988
121670.9991,0.0621,-0.1384,-0.9824,0.9940
121671.0003,0.0684,-0.1403,-0.9826,0.9949
121671.0016,0.0680,-0.1409,-0.9824,0.9947
121671.0028,0.0674,-0.1428,-0.9840,0.9966
121671.0041,0.0681,-0.1447,-0.9828,0.9958
121671.0053,0.0704,-0.1447,-0.9800,0.9931
121671.0066,0.0687,-0.1489,-0.9765,0.9902
121671.0078,0.0695,-0.1537,-0.9774,0.9919
121671.0091,0.0732,-0.1527,-0.9746,0.9892
121671.0103,0.0713,-0.1504,-0.9736,0.9877
121671.0116,0.0720,-0.1546,-0.9740,0.9888
121671.0129,0.0747,-0.1565,-0.9742,0.9895
121671.0141,0.0728,-0.1556,-0.9750,0.9900
121671.0154,0.0771,-0.1599,-0.9694,0.9855
121671.0166,0.0764,-0.1582,-0.9709,0.9867
121671.0179,0.0740,-0.1609,-0.9713,0.9873
121671.0191,0.0795,-0.1618,-0.9687,0.9853
121671.0204,0.0741,-0.1652,-0.9691,0.9859
121671.0216,0.0741,-0.1616,-0.9707,0.9868
121671.0229,0.0731,-0.1615,-0.9709,0.9869
121671.0241,0.0700,-0.1644,-0.9707,0.9870
121671.0254,0.0682,-0.1634,-0.9716,0.9876
121671.0267,0.0681,-0.1612,-0.9710,0.9867
121671.0279,0.0702,-0.1624,-0.9693,0.9853
121671.0292,0.0711,-0.1598,-0.9742,0.9898
121671.0304,0.0673,-0.1590,-0.9740,0.9892
121671.0317,0.0685,-0.1576,-0.9769,0.9919
121671.0329,0.0682,-0.1563,-0.9771,0.9919
121671.0342,0.0649,-0.1530,-0.9751,0.9892
121671.0354,0.0672,-0.1505,-0.9791,0.9928
121671.0367,0.0660,-0.1529,-0.9828,0.9968
121671.0379,0.0663,-0.1484,-0.9831,0.9964
121671.0392,0.0667,-0.1488,-0.9816,0.9951
121671.0405,0.0696,-0.1472,-0.9826,0.9960
121671.0417,0.0684,-0.1419,-0.9813,0.9939
121671.0430,0.0691,-0.1400,-0.9827,0.9950
121671.0442,0.0643,-0.1367,-0.9864,0.9979
121671.0455,0.0687,-0.1413,-0.9874,0.9999
121671.0467,0.0676,-0.1362,-0.9893,1.0009
121671.0480,0.0663,-0.1324,-0.9885,0.9995
121671.0492,0.0664,-0.1337,-0.9881,0.9993
121671.0505,0.0670,-0.1302,-0.9886,0.9994
121671.0518,0.0663,-0.1291,-0.9914,1.0020
121671.0530,0.0656,-0.1294,-0.9974,1.0079
121671.0543,0.0650,-0.1281,-0.9977,1.0080
121671.0555,0.0670,-0.1271,-0.9953,1.0056
121671.0568,0.0670,-0.1273,-0.9936,1.0040
121671.0580,0.0638,-0.1237,-0.9941,1.0038
121671.0593,0.0629,-0.1228,-0.9905,1.0000
121671.0605,0.0639,-0.1255,-0.9944,1.0043
121671.0618,0.0603,-0.1260,-0.9935,1.0032
121671.0630,0.0629,-0.1252,-0.9945,1.0044
121671.0643,0.0579,-0.1261,-0.9950,1.0046
121671.0656,0.0585,-0.1254,-0.9961,1.0057
121671.0668,0.0570,-0.1259,-0.9940,1.0036
121671.0681,0.0619,-0.1226,-0.9922,1.0017
121671.0693,0.0560,-0.1252,-0.9943,1.0037
121671.0706,0.0587,-0.1212,-0.9925,1.0016
121671.0718,0.0556,-0.1188,-0.9965,1.0051
121671.0731,0.0549,-0.1198,-0.9939,1.0025
121671.0743,0.0559,-0.1201,-0.9934,1.0022
121671.0756,0.0545,-0.1188,-0.9940,1.0025
121671.0768,0.0544,-0.1198,-0.9922,1.0009
121671.0781,0.0551,-0.1201,-0.9873,0.9961
121671.0794,0.0541,-0.1184,-0.9851,0.9936
121671.0806,0.0554,-0.1218,-0.9895,0.9985
121671.0819,0.0538,-0.1190,-0.9884,0.9970
121671.0831,0.0585,-0.1201,-0.9880,0.9970
121671.0844,0.0566,-0.1234,-0.9882,0.9975
121671.0856,0.0567,-0.1188,-0.9881,0.9968
121671.0869,0.0581,-0.1220,-0.9879,0.9971
121671.0881,0.0574,-0.1232,-0.9887,0.9980
121671.0894,0.0614,-0.1214,-0.9901,0.9994
121671.0907,0.0615,-0.1263,-0.9871,0.9970
121671.0919,0.0581,-0.1227,-0.9841,0.9934
121671.0932,0.0632,-0.1241,-0.9862,0.9960
121671.0944,0.0602,-0.1289,-0.9827,0.9929
121671.0957,0.0596,-0.1262,-0.9852,0.9951
121671.0969,0.0666,-0.1260,-0.9825,0.9928
121671.0982,0.0620,-0.1295,-0.9832,0.9936
121671.0994,0.0573,-0.1264,-0.9851,0.9948
121671.1007,0.0636,-0.1285,-0.9864,0.9968
121671.1019,0.0589,-0.1305,-0.9789,0.9893
121671.1032,0.0614,-0.1305,-0.9832,0.9937
121671.1045,0.0608,-0.1273,-0.9803,0.9904
121671.1057,0.0604,-0.1306,-0.9797,0.9902
121671.1070,0.0596,-0.1330,-0.9784,0.9892
121671.1082,0.0594,-0.1346,-0.9809,0.9919
121671.1095,0.0561,-0.1333,-0.9813,0.9919
121671.1107,0.0581,-0.1343,-0.9806,0.9915
121671.1120,0.0555,-0.1306,-0.9798,0.9900
121671.1132,0.0557,-0.1323,-0.9801,0.9906
121671.1145,0.0552,-0.1346,-0.9776,0.9883
121671.1157,0.0553,-0.1305,-0.9761,0.9863
121671.1170,0.0543,-0.1337,-0.9798,0.9904
121671.1183,0.0546,-0.1397,-0.9773,0.9888
121671.1195,0.0530,-0.1367,-0.9767,0.9876
121671.1208,0.0527,-0.1411,-0.9763,0.9878
121671.1220,0.0523,-0.1352,-0.9770,0.9877
121671.1233,0.0508,-0.1369,-0.9794,0.9903
121671.1245,0.0513,-0.1370,-0.9765,0.9874
121671.1258,0.0518,-0.1398,-0.9812,0.9925
121671.1270,0.0495,-0.1405,-0.9757,0.9870
121671.1283,0.0505,-0.1385,-0.9770,0.9880
121671.1296,0.0505,-0.1394,-0.9791,0.9903
121671.1308,0.0507,-0.1382,-0.9808,0.9918
121671.1321,0.0521,-0.1398,-0.9800,0.9913
121671.1333,0.0551,-0.1419,-0.9752,0.9870
121671.1346,0.0548,-0.1384,-0.9824,0.9936
121671.1358,0.0543,-0.1398,-0.9801,0.9915
121671.1371,0.0570,-0.1390,-0.9818,0.9932
121671.1383,0.0574,-0.1380,-0.9857,0.9969
121671.1396,0.0585,-0.1391,-0.9834,0.9949
121671.1408,0.0597,-0.1342,-0.9805,0.9915
121671.1421,0.0598,-0.1361,-0.9796,0.9909
121671.1434,0.0601,-0.1393,-0.9830,0.9947
121671.1446,0.0600,-0.1344,-0.9846,0.9955
121671.1459,0.0611,-0.1394,-0.9840,0.9957
121671.1471,0.0574,-0.1341,-0.9823,0.9931
121671.1484,0.0618,-0.1319,-0.9803,0.9911
121671.1496,0.0629,-0.1318,-0.9827,0.9935
121671.1509,0.0631,-0.1345,-0.9798,0.9910
121671.1521,0.0632,-0.1319,-0.9804,0.9912
121671.1534,0.0632,-0.1333,-0.9776,0.9887
121671.1546,0.0640,-0.1308,-0.9792,0.9899
121671.1559,0.0647,-0.1315,-0.9812,0.9921
121671.1572,0.0650,-0.1314,-0.9825,0.9933
121671.1584,0.0676,-0.1335,-0.9833,0.9946
121671.1597,0.0694,-0.1307,-0.9837,0.9948
121671.1609,0.0691,-0.1324,-0.9834,0.9946
121671.1622,0.0671,-0.1306,-0.9845,0.9954
121671.1634,0.0667,-0.1295,-0.9904,1.0011
121671.1647,0.0647,-0.1284,-0.9928,1.0032
121671.1659,0.0697,-0.1266,-0.9939,1.0043
121671.1672,0.0639,-0.1266,-1.0005,1.0105
121671.1685,0.0632,-0.1243,-0.9950,1.0047
121671.1697,0.0624,-0.1266,-0.9903,1.0003
121671.1710,0.0642,-0.1225,-0.9870,0.9966
121671.1722,0.0638,-0.1190,-0.9838,0.9930
121671.1735,0.0632,-0.1180,-0.9831,0.9922
121671.1747,0.0643,-0.1173,-0.9887,0.9977
121671.1760,0.0679,-0.1193,-0.9877,0.9972
121671.1772,0.0694,-0.1169,-0.9913,1.0005
121671.1785,0.0681,-0.1173,-0.9884,0.9976
121671.1797,0.0727,-0.1160,-0.9884,0.9978
121671.1810,0.0723,-0.1161,-0.9851,0.9945
121671.1823,0.0725,-0.1167,-0.9869,0.9964
121671.1835,0.0719,-0.1149,-0.9895,0.9988
121671.1848,0.0723,-0.1185,-0.9915,1.0012
121671.1860,0.0771,-0.1169,-0.9919,1.0017
121671.1873,0.0757,-0.1177,-0.9875,0.9974
121671.1885,0.0756,-0.1189,-0.9935,1.0034
121671.1898,0.0723,-0.1159,-0.9918,1.0012
121671.1910,0.0720,-0.1158,-0.9935,1.0028
121671.1923,0.0742,-0.1178,-0.9918,1.0015
121671.1935,0.0712,-0.1196,-0.9944,1.0041
121671.1948,0.0671,-0.1185,-0.9958,1.0050
121671.1961,0.0661,-0.1179,-0.9974,1.0065
121671.1973,0.0674,-0.1191,-0.9983,1.0076
121671.1986,0.0652,-0.1199,-0.9956,1.0049
121671.1998,0.0675,-0.1192,-0.9928,1.0023
121671.2011,0.0642,-0.1165,-0.9959,1.0048
121671.2023,0.0621,-0.1183,-0.9955,1.0045
121671.2036,0.0644,-0.1192,-0.9949,1.0041
121671.2048,0.0588,-0.1203,-0.9960,1.0050
121671.2061,0.0609,-0.1174,-0.9977,1.0065
121671.2074,0.0627,-0.1183,-1.0003,1.0092
121671.2086,0.0628,-0.1165,-0.9984,1.0071
121671.2099,0.0604,-0.1185,-0.9989,1.0077
121671.2111,0.0610,-0.1183,-0.9968,1.0057
121671.2124,0.0602,-0.1169,-0.9959,1.0045
121671.2136,0.0596,-0.1152,-0.9964,1.0048
121671.2149,0.0631,-0.1189,-0.9981,1.0072
121671.2161,0.0611,-0.1228,-0.9973,1.0067
121671.2174,0.0605,-0.1210,-1.0002,1.0093
121671.2186,0.0574,-0.1183,-0.9980,1.0066
121671.2199,0.0591,-0.1235,-0.9983,1.0077
121671.2212,0.0581,-0.1193,-1.0040,1.0127
121671.2224,0.0572,-0.1216,-1.0004,1.0094
121671.2237,0.0595,-0.1239,-1.0017,1.0111
121671.2249,0.0582,-0.1175,-0.9972,1.0058
121671.2262,0.0539,-0.1243,-0.9953,1.0045
121671.2274,0.0527,-0.1212,-0.9956,1.0043
121671.2287,0.0536,-0.1224,-0.9930,1.0020
121671.2299,0.0551,-0.1211,-0.9910,0.9999
121671.2312,0.0587,-0.1233,-0.9933,1.0026
121671.2324,0.0589,-0.1224,-0.9912,1.0005
121671.2337,0.0590,-0.1216,-0.9952,1.0044
121671.2350,0.0565,-0.1160,-0.9928,1.0011
121671.2362,0.0553,-0.1207,-0.9893,0.9981
121671.2375,0.0599,-0.1209,-0.9883,0.9975
121671.2387,0.0607,-0.1233,-0.9882,0.9977
121671.2400,0.0611,-0.1240,-0.9831,0.9928
121671.2412,0.0574,-0.1274,-0.9880,0.9979
121671.2425,0.0601,-0.1244,-0.9877,0.9973
121671.2437,0.0634,-0.1260,-0.9896,0.9996
121671.2450,0.0627,-0.1281,-0.9870,0.9973
121671.2463,0.0599,-0.1288,-0.9847,0.9949
121671.2475,0.0612,-0.1289,-0.9852,0.9954
121671.2488,0.0635,-0.1316,-0.9832,0.9940
121671.2500,0.0603,-0.1317,-0.9853,0.9959
121671.2513,0.0608,-0.1337,-0.9809,0.9919
121671.2525,0.0584,-0.1310,-0.9830,0.9934
121671.2538,0.0571,-0.1334,-0.9838,0.9944
121671.2550,0.0581,-0.1343,-0.9792,0.9901
121671.2563,0.0612,-0.1323,-0.9854,0.9962
121671.2575,0.0565,-0.1380,-0.9760,0.9873
121671.2588,0.0599,-0.1354,-0.9799,0.9911
121671.2601,0.0604,-0.1372,-0.9799,0.9913
121671.2613,0.0624,-0.1357,-0.9781,0.9895
121671.2626,0.0569,-0.1373,-0.9766,0.9879
121671.2638,0.0600,-0.1373,-0.9733,0.9847
121671.2651,0.0595,-0.1379,-0.9756,0.9871
121671.2663,0.0573,-0.1337,-0.9764,0.9872
121671.2676,0.0585,-0.1346,-0.9752,0.9862
121671.2688,0.0576,-0.1337,-0.9754,0.9862
121671.2701,0.0571,-0.1344,-0.9750,0.9859
121671.2713,0.0567,-0.1335,-0.9778,0.9885
121671.2726,0.0573,-0.1378,-0.9754,0.9868
121671.2739,0.0562,-0.1360,-0.9784,0.9894
121671.2751,0.0555,-0.1365,-0.9776,0.9887
121671.2764,0.0526,-0.1376,-0.9785,0.9895
121671.2776,0.0565,-0.1354,-0.9787,0.9896
121671.2789,0.0527,-0.1346,-0.9775,0.9881
121671.2801,0.0520,-0.1309,-0.9762,0.9863
121671.2814,0.0508,-0.1295,-0.9767,0.9866
121671.2826,0.0540,-0.1312,-0.9738,0.9840
121671.2839,0.0500,-0.1333,-0.9790,0.9893
121671.2852,0.0493,-0.1322,-0.9779,0.9880
121671.2864,0.0477,-0.1322,-0.9785,0.9886
121671.2877,0.0471,-0.1295,-0.9816,0.9912
121671.2889,0.0520,-0.1320,-0.9742,0.9845
121671.2902,0.0522,-0.1346,-0.9736,0.9842
121671.2914,0.0509,-0.1294,-0.9749,0.9847
121671.2927,0.0511,-0.1296,-0.9776,0.9875
121671.2939,0.0515,-0.1318,-0.9792,0.9894
121671.2952,0.0514,-0.1309,-0.9723,0.9825
121671.2964,0.0521,-0.1322,-0.9759,0.9862
121671.2977,0.0498,-0.1349,-0.9750,0.9856
121671.2990,0.0507,-0.1325,-0.9725,0.9828
121671.3002,0.0565,-0.1390,-0.9780,0.9894
121671.3015,0.0551,-0.1375,-0.9743,0.9855
121671.3027,0.0550,-0.1370,-0.9715,0.9827
121671.3040,0.0565,-0.1398,-0.9726,0.9843
121671.3052,0.0564,-0.1391,-0.9786,0.9900
121671.3065,0.0554,-0.1409,-0.9734,0.9851
121671.3077,0.0534,-0.1383,-0.9718,0.9830
121671.3090,0.0567,-0.1421,-0.9736,0.9855
121671.3102,0.0580,-0.1398,-0.9715,0.9832
121671.3115,0.0574,-0.1409,-0.9703,0.9821
121671.3128,0.0549,-0.1450,-0.9677,0.9800
121671.3140,0.0546,-0.1434,-0.9689,0.9810
121671.3153,0.0574,-0.1426,-0.9703,0.9824
121671.3165,0.0565,-0.1447,-0.9735,0.9858
121671.3178,0.0542,-0.1411,-0.9706,0.9823
121671.3190,0.0553,-0.1451,-0.9703,0.9827
121671.3203,0.0527,-0.1458,-0.9739,0.9862
121671.3215,0.0534,-0.1441,-0.9711,0.9832
121671.3228,0.0482,-0.1422,-0.9719,0.9834
121671.3240,0.0477,-0.1450,-0.9724,0.9843
121671.3253,0.0509,-0.1427,-0.9713,0.9830
121671.3266,0.0509,-0.1421,-0.9739,0.9856
121671.3278,0.0490,-0.1444,-0.9720,0.9839
121671.3291,0.0512,-0.1463,-0.9714,0.9837
121671.3303,0.0485,-0.1426,-0.9731,0.9847
121671.3316,0.0475,-0.1421,-0.9682,0.9797
121671.3328,0.0497,-0.1420,-0.9713,0.9829
121671.3341,0.0480,-0.1405,-0.9713,0.9825
121671.3353,0.0513,-0.1436,-0.9700,0.9819
121671.3366,0.0495,-0.1412,-0.9735,0.9849
121671.3379,0.0510,-0.1409,-0.9701,0.9816
121671.3391,0.0550,-0.1413,-0.9698,0.9816
121671.3404,0.0514,-0.1429,-0.9708,0.9826
121671.3416,0.0547,-0.1394,-0.9689,0.9804
121671.3429,0.0565,-0.1437,-0.9671,0.9793
121671.3441,0.0573,-0.1435,-0.9697,0.9820
121671.3454,0.0565,-0.1416,-0.9680,0.9799
121671.3466,0.0604,-0.1430,-0.9682,0.9806
121671.3479,0.0587,-0.1412,-0.9694,0.9813
121671.3491,0.0569,-0.1436,-0.9706,0.9829
121671.3504,0.0618,-0.1415,-0.9698,0.9820
121671.3517,0.0589,-0.1418,-0.9720,0.9840
121671.3529,0.0618,-0.1413,-0.9714,0.9836
121671.3542,0.0641,-0.1427,-0.9709,0.9834
121671.3554,0.0600,-0.1397,-0.9683,0.9802
121671.3567,0.0618,-0.1436,-0.9711,0.9836
121671.3579,0.0616,-0.1434,-0.9716,0.9840
121671.3592,0.0582,-0.1407,-0.9665,0.9784
121671.3604,0.0603,-0.1432,-0.9644,0.9769
121671.3617,0.0621,-0.1423,-0.9610,0.9734
121671.3629,0.0563,-0.1436,-0.9673,0.9795
121671.3642,0.0574,-0.1438,-0.9708,0.9830
121671.3655,0.0557,-0.1419,-0.9692,0.9811
121671.3667,0.0575,-0.1465,-0.9632,0.9760
121671.3680,0.0580,-0.1456,-0.9664,0.9790
121671.3692,0.0524,-0.1482,-0.9664,0.9791
121671.3705,0.0542,-0.1435,-0.9648,0.9769
121671.3717,0.0529,-0.1464,-0.9646,0.9770
121671.3730,0.0514,-0.1464,-0.9645,0.9769
121671.3742,0.0506,-0.1481,-0.9668,0.9793
121671.3755,0.0467,-0.1461,-0.9668,0.9788
121671.3768,0.0500,-0.1478,-0.9663,0.9788
121671.3780,0.0491,-0.1450,-0.9668,0.9788
121671.3793,0.0490,-0.1479,-0.9670,0.9795
121671.3805,0.0465,-0.1463,-0.9675,0.9796
121671.3818,0.0465,-0.1458,-0.9691,0.9811
121671.3830,0.0465,-0.1404,-0.9672,0.9784
121671.3843,0.0511,-0.1417,-0.9642,0.9759
121671.3855,0.0475,-0.1401,-0.9682,0.9794
121671.3868,0.0480,-0.1421,-0.9639,0.9755
121671.3880,0.0495,-0.1384,-0.9650,0.9761
121671.3893,0.0507,-0.1373,-0.9666,0.9777
121671.3906,0.0505,-0.1379,-0.9681,0.9792
121671.3918,0.0557,-0.1394,-0.9680,0.9796
121671.3931,0.0556,-0.1334,-0.9676,0.9783
121671.3943,0.0536,-0.1363,-0.9677,0.9787
121671.3956,0.0547,-0.1372,-0.9692,0.9804
121671.3968,0.0558,-0.1381,-0.9691,0.9805
121671.3981,0.0538,-0.1344,-0.9696,0.9803
121671.3993,0.0579,-0.1341,-0.9671,0.9781
121671.4006,0.0577,-0.1355,-0.9631,0.9743
121671.4018,0.0589,-0.1387,-0.9657,0.9774
121671.4031,0.0601,-0.1345,-0.9699,0.9811
121671.4044,0.0548,-0.1382,-0.9723,0.9836
121671.4056,0.0562,-0.1347,-0.9676,0.9786
121671.4069,0.0579,-0.1358,-0.9717,0.9829
121671.4081,0.0605,-0.1370,-0.9705,0.9820
121671.4094,0.0601,-0.1403,-0.9677,0.9797
121671.4106,0.0571,-0.1378,-0.9717,0.9831
121671.4119,0.0549,-0.1383,-0.9690,0.9803
121671.4131,0.0604,-0.1397,-0.9699,0.9818
121671.4144,0.0623,-0.1414,-0.9732,0.9854
121671.4157,0.0610,-0.1419,-0.9754,0.9876
121671.4169,0.0593,-0.1429,-0.9738,0.9860
121671.4182,0.0603,-0.1424,-0.9765,0.9887
121671.4194,0.0616,-0.1436,-0.9709,0.9834
121671.4207,0.0605,-0.1444,-0.9747,0.9872
121671.4219,0.0617,-0.1423,-0.9767,0.9890
121671.4232,0.0590,-0.1440,-0.9736,0.9859
121671.4244,0.0631,-0.1422,-0.9748,0.9871
121671.4257,0.0648,-0.1481,-0.9749,0.9882
121671.4269,0.0665,-0.1461,-0.9760,0.9891
121671.4282,0.0645,-0.1471,-0.9770,0.9901
121671.4295,0.0674,-0.1466,-0.9769,0.9901
121671.4307,0.0667,-0.1471,-0.9761,0.9894
121671.4320,0.0704,-0.1498,-0.9839,0.9977
121671.4332,0.0706,-0.1506,-0.9803,0.9944
121671.4345,0.0694,-0.1495,-0.9783,0.9921
121671.4357,0.0712,-0.1507,-0.9769,0.9910
121671.4370,0.0707,-0.1505,-0.9803,0.9944
121671.4382,0.0733,-0.1527,-0.9777,0.9923
121671.4395,0.0755,-0.1526,-0.9793,0.9940
121671.4408,0.0749,-0.1526,-0.9796,0.9942
121671.4420,0.0744,-0.1532,-0.9807,0.9954
121671.4433,0.0766,-0.1565,-0.9803,0.9957
121671.4445,0.0727,-0.1597,-0.9758,0.9915
121671.4458,0.0759,-0.1590,-0.9781,0.9939
121671.4470,0.0772,-0.1577,-0.9784,0.9940
121671.4483,0.0801,-0.1586,-0.9788,0.9948
121671.4495,0.0742,-0.1588,-0.9816,0.9971
121671.4508,0.0749,-0.1584,-0.9821,0.9976
121671.4520,0.0785,-0.1574,-0.9827,0.9983
121671.4533,0.0784,-0.1557,-0.9826,0.9979
121671.4546,0.0777,-0.1616,-0.9851,1.0013
121671.4558,0.0822,-0.1637,-0.9851,1.0020
121671.4571,0.0820,-0.1595,-0.9841,1.0003
121671.4583,0.0809,-0.1602,-0.9817,0.9980
121671.4596,0.0847,-0.1597,-0.9823,0.9988
121671.4608,0.0838,-0.1570,-0.9805,0.9966
121671.4621,0.0884,-0.1580,-0.9781,0.9947
121671.4633,0.0892,-0.1586,-0.9772,0.9940
121671.4646,0.0911,-0.1595,-0.9785,0.9956
121671.4658,0.0900,-0.1596,-0.9795,0.9965
121671.4671,0.0889,-0.1574,-0.9786,0.9952
121671.4684,0.0914,-0.1585,-0.9770,0.9940
121671.4696,0.0941,-0.1592,-0.9816,0.9989
121671.4709,0.0926,-0.1609,-0.9776,0.9951
121671.4721,0.0970,-0.1633,-0.9768,0.9951
121671.4734,0.0957,-0.1601,-0.9780,0.9956
121671.4746,0.0973,-0.1604,-0.9777,0.9955
121671.4759,0.0978,-0.1602,-0.9772,0.9951
121671.4771,0.0964,-0.1608,-0.9751,0.9929
121671.4784,0.0954,-0.1649,-0.9798,0.9981
121671.4796,0.0961,-0.1631,-0.9741,0.9923
121671.4809,0.0978,-0.1603,-0.9739,0.9918
121671.4822,0.1001,-0.1639,-0.9738,0.9926
121671.4834,0.0920,-0.1617,-0.9753,0.9929
121671.4847,0.0948,-0.1618,-0.9726,0.9905
121671.4859,0.0971,-0.1631,-0.9736,0.9919
121671.4872,0.0949,-0.1619,-0.9749,0.9928
121671.4884,0.0972,-0.1625,-0.9708,0.9891
121671.4897,0.0969,-0.1608,-0.9756,0.9935
121671.4909,0.0952,-0.1625,-0.9732,0.9913
121671.4922,0.0947,-0.1641,-0.9738,0.9921
121671.4935,0.0960,-0.1624,-0.9750,0.9931
121671.4947,0.0967,-0.1627,-0.9777,0.9958
121671.4960,0.0970,-0.1621,-0.9713,0.9895
121671.4972,0.0961,-0.1615,-0.9764,0.9943
121671.4985,0.0954,-0.1596,-0.9751,0.9927
121671.4997,0.0969,-0.1621,-0.9758,0.9940
121671.5010,0.0984,-0.1624,-0.9746,0.9930
121671.5022,0.0947,-0.1578,-0.9707,0.9879
121671.5035,0.0993,-0.1559,-0.9754,0.9927
121671.5047,0.0968,-0.1626,-0.9745,0.9927
121671.5060,0.0966,-0.1603,-0.9717,0.9895
121671.5073,0.0987,-0.1563,-0.9744,0.9918
121671.5085,0.1017,-0.1580,-0.9731,0.9910
121671.5098,0.0989,-0.1568,-0.9743,0.9918
121671.5110,0.0987,-0.1569,-0.9696,0.9872
121671.5123,0.1006,-0.1586,-0.9732,0.9911
121671.5135,0.0994,-0.1580,-0.9742,0.9919
121671.5148,0.1003,-0.1567,-0.9769,0.9944
121671.5160,0.0994,-0.1578,-0.9758,0.9934
121671.5173,0.1005,-0.1586,-0.9759,0.9938
121671.5185,0.0999,-0.1561,-0.9772,0.9946
121671.5198,0.1006,-0.1584,-0.9751,0.9930
121671.5211,0.1019,-0.1549,-0.9789,0.9963
121671.5223,0.0997,-0.1614,-0.9746,0.9929
121671.5236,0.1029,-0.1617,-0.9723,0.9910
121671.5248,0.0993,-0.1561,-0.9717,0.9891
121671.5261,0.0989,-0.1564,-0.9723,0.9897
121671.5273,0.0977,-0.1559,-0.9755,0.9927
121671.5286,0.0977,-0.1588,-0.9800,0.9976
121671.5298,0.0954,-0.1559,-0.9798,0.9967
121671.5311,0.0947,-0.1574,-0.9772,0.9943
121671.5324,0.0966,-0.1578,-0.9758,0.9932
121671.5336,0.0944,-0.1579,-0.9735,0.9907
121671.5349,0.0944,-0.1574,-0.9704,0.9876
121671.5361,0.0952,-0.1595,-0.9715,0.9891
121671.5374,0.0941,-0.1604,-0.9694,0.9871
121671.5386,0.0971,-0.1562,-0.9728,0.9900
121671.5399,0.0942,-0.1578,-0.9707,0.9879
121671.5411,0.0933,-0.1620,-0.9700,0.9878
121671.5424,0.0983,-0.1574,-0.9695,0.9871
121671.5436,0.0933,-0.1561,-0.9680,0.9849
121671.5449,0.0981,-0.1587,-0.9692,0.9870
121671.5462,0.0977,-0.1596,-0.9726,0.9904
121671.5474,0.0998,-0.1603,-0.9719,0.9901
121671.5487,0.0947,-0.1568,-0.9712,0.9884
121671.5499,0.0978,-0.1577,-0.9695,0.9871
121671.5512,0.0988,-0.1568,-0.9686,0.9862
121671.5524,0.1023,-0.1581,-0.9684,0.9866
121671.5537,0.1032,-0.1586,-0.9696,0.9879
121671.5549,0.1031,-0.1568,-0.9709,0.9889
121671.5562,0.1035,-0.1552,-0.9683,0.9861
121671.5574,0.1003,-0.1566,-0.9721,0.9897
121671.5587,0.1040,-0.1567,-0.9678,0.9860
121671.5600,0.1070,-0.1564,-0.9700,0.9883
121671.5612,0.1039,-0.1557,-0.9706,0.9884
121671.5625,0.1054,-0.1521,-0.9699,0.9874
121671.5637,0.1088,-0.1532,-0.9708,0.9888
121671.5650,0.1043,-0.1589,-0.9697,0.9882
121671.5662,0.1093,-0.1557,-0.9682,0.9867
121671.5675,0.1060,-0.1533,-0.9710,0.9888
121671.5687,0.1095,-0.1521,-0.9719,0.9898
121671.5700,0.1109,-0.1548,-0.9702,0.9887
121671.5713,0.1134,-0.1552,-0.9719,0.9907
121671.5725,0.1132,-0.1523,-0.9667,0.9852
121671.5738,0.1131,-0.1542,-0.9680,0.9867
121671.5750,0.1169,-0.1558,-0.9720,0.9913
121671.5763,0.1131,-0.1543,-0.9689,0.9876
121671.5775,0.1124,-0.1536,-0.9721,0.9906
121671.5788,0.1164,-0.1558,-0.9741,0.9933
121671.5800,0.1173,-0.1562,-0.9683,0.9878
121671.5813,0.1172,-0.1546,-0.9722,0.9914
121671.5825,0.1155,-0.1518,-0.9739,0.9925
121671.5838,0.1160,-0.1503,-0.9770,0.9953
121671.5851,0.1195,-0.1516,-0.9796,0.9984
121671.5863,0.1179,-0.1482,-0.9780,0.9961
121671.5876,0.1189,-0.1480,-0.9722,0.9906
121671.5888,0.1179,-0.1479,-0.9716,0.9899
121671.5901,0.1169,-0.1465,-0.9767,0.9945
121671.5913,0.1185,-0.1443,-0.9745,0.9922
121671.5926,0.1193,-0.1431,-0.9760,0.9936
121671.5938,0.1200,-0.1441,-0.9704,0.9884
121671.5951,0.1179,-0.1459,-0.9703,0.9882
121671.5963,0.1189,-0.1469,-0.9793,0.9974
121671.5976,0.1216,-0.1453,-0.9712,0.9895
121671.5989,0.1181,-0.1454,-0.9767,0.9945
121671.6001,0.1176,-0.1498,-0.9741,0.9925
121671.6014,0.1194,-0.1457,-0.9704,0.9885
121671.6026,0.1168,-0.1455,-0.9716,0.9893
121671.6039,0.1198,-0.1455,-0.9717,0.9898
121671.6051,0.1217,-0.1477,-0.9748,0.9934
121671.6064,0.1171,-0.1489,-0.9740,0.9922
121671.6076,0.1200,-0.1488,-0.9702,0.9889
121671.6089,0.1185,-0.1511,-0.9708,0.9896
121671.6101,0.1183,-0.1465,-0.9690,0.9871
121671.6114,0.1193,-0.1552,-0.9689,0.9885
121671.6127,0.1193,-0.1528,-0.9689,0.9881
121671.6139,0.1163,-0.1483,-0.9705,0.9887
121671.6152,0.1157,-0.1502,-0.9708,0.9891
121671.6164,0.1203,-0.1536,-0.9719,0.9913
121671.6177,0.1157,-0.1493,-0.9703,0.9885
121671.6189,0.1183,-0.1518,-0.9667,0.9857
121671.6202,0.1154,-0.1469,-0.9688,0.9867
121671.6214,0.1156,-0.1504,-0.9655,0.9840
121671.6227,0.1152,-0.1479,-0.9690,0.9870
121671.6240,0.1166,-0.1489,-0.9687,0.9870
121671.6252,0.1157,-0.1465,-0.9648,0.9827
121671.6265,0.1144,-0.1476,-0.9671,0.9850
121671.6277,0.1166,-0.1464,-0.9661,0.9841
121671.6290,0.1172,-0.1419,-0.9661,0.9834
121671.6302,0.1154,-0.1441,-0.9630,0.9805
121671.6315,0.1165,-0.1423,-0.9654,0.9828
121671.6327,0.1180,-0.1405,-0.9619,0.9792
121671.6340,0.1186,-0.1387,-0.9626,0.9798
121671.6352,0.1186,-0.1429,-0.9609,0.9787
121671.6365,0.1200,-0.1398,-0.9587,0.9762
121671.6378,0.1178,-0.1404,-0.9590,0.9764
121671.6390,0.1224,-0.1379,-0.9599,0.9774
121671.6403,0.1237,-0.1426,-0.9565,0.9749
121671.6415,0.1229,-0.1394,-0.9587,0.9765
121671.6428,0.1253,-0.1405,-0.9562,0.9746
121671.6440,0.1272,-0.1408,-0.9576,0.9762
121671.6453,0.1287,-0.1422,-0.9548,0.9739
121671.6465,0.1258,-0.1428,-0.9548,0.9736
121671.6478,0.1270,-0.1450,-0.9545,0.9738
121671.6491,0.1257,-0.1469,-0.9516,0.9710
121671.6503,0.1283,-0.1433,-0.9548,0.9740
121671.6516,0.1238,-0.1440,-0.9526,0.9713
121671.6528,0.1255,-0.1469,-0.9464,0.9659
121671.6541,0.1263,-0.1450,-0.9506,0.9698
121671.6553,0.1232,-0.1501,-0.9498,0.9694
121671.6566,0.1208,-0.1497,-0.9492,0.9685
121671.6578,0.1215,-0.1537,-0.9427,0.9628
121671.6591,0.1233,-0.1523,-0.9488,0.9688
121671.6603,0.1212,-0.1526,-0.9474,0.9673
121671.6616,0.1193,-0.1486,-0.9442,0.9633
121671.6629,0.1182,-0.1519,-0.9415,0.9610
121671.6641,0.1167,-0.1530,-0.9438,0.9632
121671.6654,0.1160,-0.1540,-0.9435,0.9630
121671.6666,0.1180,-0.1518,-0.9450,0.9643
121671.6679,0.1153,-0.1554,-0.9393,0.9591
121671.6691,0.1159,-0.1524,-0.9375,0.9569
121671.6704,0.1196,-0.1506,-0.9394,0.9589
121671.6716,0.1193,-0.1539,-0.9397,0.9597
121671.6729,0.1182,-0.1503,-0.9406,0.9599
121671.6741,0.1174,-0.1500,-0.9386,0.9577
121671.6754,0.1150,-0.1467,-0.9369,0.9552
121671.6767,0.1153,-0.1464,-0.9400,0.9583
121671.6779,0.1149,-0.1453,-0.9433,0.9614
121671.6792,0.1190,-0.1481,-0.9372,0.9563
121671.6804,0.1168,-0.1420,-0.9371,0.9550
121671.6817,0.1169,-0.1405,-0.9385,0.9561
121671.6829,0.1165,-0.1397,-0.9397,0.9572
121671.6842,0.1147,-0.1349,-0.9427,0.9592
121671.6854,0.1147,-0.1334,-0.9400,0.9563
121671.6867,0.1153,-0.1331,-0.9409,0.9572
121671.6880,0.1148,-0.1335,-0.9444,0.9607
121671.6892,0.1130,-0.1362,-0.9417,0.9582
121671.6905,0.1141,-0.1308,-0.9423,0.9582
121671.6917,0.1145,-0.1286,-0.9457,0.9613
121671.6930,0.1134,-0.1280,-0.9415,0.9569
121671.6942,0.1130,-0.1316,-0.9448,0.9606
121671.6955,0.1105,-0.1293,-0.9470,0.9622
121671.6967,0.1065,-0.1249,-0.9496,0.9636
121671.6980,0.1079,-0.1287,-0.9473,0.9621
121671.6992,0.1077,-0.1273,-0.9490,0.9636
121671.7005,0.1063,-0.1256,-0.9542,0.9682
121671.7018,0.1052,-0.1263,-0.9534,0.9675
121671.7030,0.1004,-0.1281,-0.9541,0.9678
121671.7043,0.1022,-0.1236,-0.9537,0.9671
121671.7055,0.1042,-0.1212,-0.9599,0.9731
121671.7068,0.1000,-0.1225,-0.9567,0.9697
121671.7080,0.1016,-0.1233,-0.9613,0.9745
121671.7093,0.1027,-0.1242,-0.9630,0.9764
121671.7105,0.1007,-0.1178,-0.9627,0.9751
121671.7118,0.0996,-0.1176,-0.9648,0.9770
121671.7130,0.0996,-0.1173,-0.9654,0.9776
121671.7143,0.1047,-0.1142,-0.9648,0.9772
121671.7156,0.1032,-0.1155,-0.9690,0.9813
121671.7168,0.1033,-0.1153,-0.9671,0.9795
121671.7181,0.1064,-0.1157,-0.9698,0.9825
121671.7193,0.1045,-0.1183,-0.9755,0.9882
121671.7206,0.1061,-0.1154,-0.9713,0.9838
121671.7218,0.1074,-0.1119,-0.9750,0.9872
121671.7231,0.1101,-0.1126,-0.9785,0.9911
121671.7243,0.1074,-0.1148,-0.9799,0.9924
121671.7256,0.1075,-0.1096,-0.9793,0.9913
121671.7269,0.1119,-0.1135,-0.9848,0.9976
121671.7281,0.1119,-0.1110,-0.9848,0.9973
121671.7294,0.1112,-0.1095,-0.9884,1.0007
121671.7306,0.1144,-0.1113,-0.9884,1.0012
121671.7319,0.1112,-0.1115,-0.9895,1.0020
121671.7331,0.1149,-0.1089,-0.9909,1.0034
121671.7344,0.1171,-0.1040,-0.9912,1.0035
121671.7356,0.1185,-0.1039,-0.9905,1.0030
121671.7369,0.1168,-0.1020,-0.9898,1.0019
121671.7381,0.1187,-0.0997,-0.9953,1.0073
121671.7394,0.1154,-0.1014,-0.9933,1.0051
121671.7407,0.1148,-0.0975,-0.9920,1.0033
121671.7419,0.1181,-0.1037,-0.9950,1.0073
121671.7432,0.1201,-0.0977,-0.9966,1.0086
121671.7444,0.1185,-0.1020,-0.9971,1.0093
121671.7457,0.1199,-0.1002,-0.9944,1.0066
121671.7469,0.1166,-0.1003,-0.9941,1.0060
121671.7482,0.1169,-0.1040,-0.9967,1.0089
121671.7494,0.1180,-0.1014,-0.9984,1.0104
121671.7507,0.1154,-0.1040,-0.9958,1.0078
121671.7519,0.1170,-0.1035,-0.9955,1.0077
121671.7532,0.1130,-0.1063,-0.9993,1.0112
121671.7545,0.1088,-0.1077,-0.9973,1.0089
121671.7557,0.1105,-0.1041,-0.9942,1.0058
121671.7570,0.1080,-0.1049,-0.9915,1.0029
121671.7582,0.1082,-0.1059,-0.9940,1.0055
121671.7595,0.1073,-0.1091,-0.9891,1.0009
121671.7607,0.1077,-0.1091,-0.9944,1.0062
121671.7620,0.1087,-0.1088,-0.9910,1.0028
121671.7632,0.1067,-0.1085,-0.9923,1.0039
121671.7645,0.1066,-0.1065,-0.9907,1.0021
121671.7657,0.1031,-0.1112,-0.9859,0.9975
121671.7670,0.1023,-0.1109,-0.9837,0.9952
121671.7683,0.1022,-0.1142,-0.9825,0.9944
121671.7695,0.1033,-0.1115,-0.9790,0.9908
121671.7708,0.1012,-0.1151,-0.9776,0.9895
121671.7720,0.0985,-0.1122,-0.9776,0.9889
121671.7733,0.1034,-0.1114,-0.9803,0.9920
121671.7745,0.1015,-0.1173,-0.9812,0.9934
121671.7758,0.0995,-0.1157,-0.9791,0.9910
121671.7770,0.0993,-0.1138,-0.9771,0.9887
121671.7783,0.1013,-0.1122,-0.9761,0.9877
121671.7796,0.0984,-0.1127,-0.9792,0.9905
121671.7808,0.1023,-0.1174,-0.9769,0.9893
121671.7821,0.1004,-0.1135,-0.9793,0.9909
121671.7833,0.1073,-0.1124,-0.9752,0.9875
121671.7846,0.1019,-0.1152,-0.9787,0.9907
121671.7858,0.1023,-0.1114,-0.9762,0.9878
121671.7871,0.1022,-0.1134,-0.9767,0.9886
121671.7883,0.1045,-0.1146,-0.9775,0.9898
121671.7896,0.1082,-0.1155,-0.9734,0.9862
121671.7908,0.1007,-0.1107,-0.9755,0.9869
121671.7921,0.1039,-0.1157,-0.9726,0.9850
121671.7934,0.1036,-0.1127,-0.9715,0.9835
121671.7946,0.1050,-0.1130,-0.9707,0.9829
121671.7959,0.1076,-0.1133,-0.9711,0.9836
121671.7971,0.1060,-0.1183,-0.9713,0.9842
121671.7984,0.1074,-0.1163,-0.9688,0.9817
121671.7996,0.1069,-0.1232,-0.9736,0.9872
121671.8009,0.1103,-0.1212,-0.9692,0.9830
121671.8021,0.1064,-0.1228,-0.9662,0.9798
121671.8034,0.1060,-0.1224,-0.9653,0.9787
121671.8046,0.1110,-0.1252,-0.9662,0.9806
121671.8059,0.1075,-0.1237,-0.9639,0.9778
121671.8072,0.1080,-0.1267,-0.9638,0.9781
121671.8084,0.1065,-0.1287,-0.9675,0.9818
121671.8097,0.1027,-0.1304,-0.9620,0.9762
121671.8109,0.1044,-0.1291,-0.9638,0.9780
121671.8122,0.1031,-0.1381,-0.9642,0.9795
121671.8134,0.1024,-0.1328,-0.9655,0.9800
121671.8147,0.1024,-0.1352,-0.9638,0.9786
121671.8159,0.0995,-0.1385,-0.9642,0.9792
121671.8172,0.0996,-0.1344,-0.9679,0.9822
121671.8185,0.1014,-0.1321,-0.9651,0.9793
121671.8197,0.0961,-0.1316,-0.9676,0.9812
121671.8210,0.0923,-0.1351,-0.9652,0.9789
121671.8222,0.0946,-0.1297,-0.9697,0.9829
121671.8235,0.0937,-0.1293,-0.9708,0.9839
121671.8247,0.0903,-0.1239,-0.9710,0.9830
121671.8260,0.0886,-0.1243,-0.9681,0.9800
121671.8272,0.0873,-0.1166,-0.9686,0.9794
121671.8285,0.0855,-0.1164,-0.9676,0.9783
121671.8297,0.0837,-0.1171,-0.9718,0.9824
121671.8310,0.0842,-0.1124,-0.9662,0.9764
121671.8323,0.0822,-0.1108,-0.9615,0.9714
121671.8335,0.0822,-0.1112,-0.9634,0.9733
121671.8348,0.0812,-0.1052,-0.9598,0.9690
121671.8360,0.0815,-0.1072,-0.9602,0.9696
121671.8373,0.0757,-0.1046,-0.9603,0.9689
121671.8385,0.0772,-0.1018,-0.9626,0.9710
121671.8398,0.0801,-0.1020,-0.9617,0.9704
121671.8410,0.0752,-0.1030,-0.9605,0.9690
121671.8423,0.0738,-0.1047,-0.9608,0.9693
121671.8435,0.0698,-0.0995,-0.9582,0.9659
121671.8448,0.0723,-0.1015,-0.9574,0.9655
121671.8461,0.0717,-0.1025,-0.9572,0.9653
121671.8473,0.0715,-0.1004,-0.9590,0.9669
121671.8486,0.0678,-0.0989,-0.9548,0.9623
121671.8498,0.0619,-0.1005,-0.9559,0.9631
121671.8511,0.0632,-0.1045,-0.9537,0.9614
121671.8523,0.0575,-0.1007,-0.9551,0.9621
121671.8536,0.0657,-0.0988,-0.9545,0.9619
121671.8548,0.0597,-0.0987,-0.9556,0.9625
121671.8561,0.0624,-0.0981,-0.9535,0.9606
121671.8574,0.0584,-0.0948,-0.9538,0.9603
121671.8586,0.0585,-0.0955,-0.9564,0.9629
121671.8599,0.0583,-0.0907,-0.9552,0.9613
121671.8611,0.0541,-0.0946,-0.9530,0.9592
121671.8624,0.0570,-0.0923,-0.9521,0.9582
121671.8636,0.0564,-0.0919,-0.9546,0.9606
121671.8649,0.0558,-0.0891,-0.9507,0.9565
121671.8661,0.0529,-0.0938,-0.9521,0.9582
121671.8674,0.0543,-0.0905,-0.9497,0.9556
121671.8686,0.0548,-0.0907,-0.9469,0.9528
121671.8699,0.0540,-0.0885,-0.9464,0.9520
121671.8712,0.0518,-0.0915,-0.9444,0.9502
121671.8724,0.0545,-0.0921,-0.9476,0.9536
121671.8737,0.0571,-0.0941,-0.9453,0.9517
121671.8749,0.0534,-0.0934,-0.9444,0.9505
121671.8762,0.0546,-0.0931,-0.9470,0.9531
121671.8774,0.0549,-0.0921,-0.9403,0.9464
121671.8787,0.0519,-0.0946,-0.9455,0.9517
121671.8799,0.0565,-0.0943,-0.9370,0.9434
121671.8812,0.0561,-0.0954,-0.9410,0.9475
121671.8824,0.0491,-0.0991,-0.9382,0.9447
121671.8837,0.0529,-0.0990,-0.9399,0.9466
121671.8850,0.0539,-0.0947,-0.9396,0.9459
121671.8862,0.0498,-0.1010,-0.9370,0.9437
121671.8875,0.0482,-0.0995,-0.9335,0.9401
121671.8887,0.0523,-0.1008,-0.9332,0.9401
121671.8900,0.0471,-0.1016,-0.9376,0.9443
121671.8912,0.0491,-0.0963,-0.9363,0.9426
121671.8925,0.0460,-0.1008,-0.9323,0.9389
121671.8937,0.0470,-0.1004,-0.9294,0.9360
121671.8950,0.0480,-0.1010,-0.9314,0.9381
121671.8963,0.0447,-0.1015,-0.9291,0.9357
121671.8975,0.0462,-0.1006,-0.9310,0.9375
121671.8988,0.0448,-0.0993,-0.9253,0.9317
121671.9000,0.0441,-0.0939,-0.9283,0.9340
121671.9013,0.0430,-0.0972,-0.9274,0.9334
121671.9025,0.0418,-0.0932,-0.9260,0.9316
121671.9038,0.0407,-0.0966,-0.9287,0.9346
121671.9050,0.0417,-0.0936,-0.9258,0.9314
121671.9063,0.0415,-0.0915,-0.9239,0.9294
121671.9075,0.0403,-0.0914,-0.9243,0.9296
121671.9088,0.0374,-0.0915,-0.9279,0.9331
121671.9101,0.0396,-0.0890,-0.9238,0.9289
121671.9113,0.0401,-0.0884,-0.9205,0.9256
121671.9126,0.0395,-0.0890,-0.9221,0.9272
121671.9138,0.0420,-0.0872,-0.9225,0.9276
121671.9151,0.0358,-0.0842,-0.9200,0.9245
121671.9163,0.0404,-0.0807,-0.9203,0.9247
121671.9176,0.0398,-0.0802,-0.9239,0.9283
121671.9188,0.0392,-0.0805,-0.9206,0.9249
121671.9201,0.0390,-0.0799,-0.9168,0.9211
121671.9213,0.0401,-0.0766,-0.9168,0.9209
121671.9226,0.0394,-0.0770,-0.9196,0.9237
121671.9239,0.0405,-0.0714,-0.9174,0.9211
121671.9251,0.0395,-0.0760,-0.9219,0.9259
121671.9264,0.0369,-0.0726,-0.9184,0.9220
121671.9276,0.0381,-0.0726,-0.9184,0.9220
121671.9289,0.0362,-0.0698,-0.9157,0.9190
121671.9301,0.0400,-0.0694,-0.9141,0.9176
121671.9314,0.0334,-0.0675,-0.9153,0.9184
121671.9326,0.0347,-0.0658,-0.9155,0.9185
121671.9339,0.0348,-0.0682,-0.9122,0.9154
121671.9352,0.0338,-0.0654,-0.9119,0.9148
121671.9364,0.0327,-0.0639,-0.9104,0.9132
121671.9377,0.0338,-0.0652,-0.9131,0.9161
121671.9389,0.0332,-0.0607,-0.9090,0.9116
121671.9402,0.0319,-0.0562,-0.9120,0.9143
121671.9414,0.0315,-0.0573,-0.9105,0.9128
121671.9427,0.0302,-0.0568,-0.9063,0.9085
121671.9439,0.0343,-0.0549,-0.9071,0.9094
121671.9452,0.0325,-0.0556,-0.9035,0.9058
121671.9464,0.0326,-0.0546,-0.9064,0.9086
121671.9477,0.0327,-0.0544,-0.9048,0.9071
121671.9490,0.0325,-0.0521,-0.9038,0.9059
121671.9502,0.0279,-0.0531,-0.9015,0.9035
121671.9515,0.0321,-0.0539,-0.8990,0.9011
121671.9527,0.0294,-0.0508,-0.8972,0.8992
121671.9540,0.0324,-0.0529,-0.8941,0.8962
121671.9552,0.0290,-0.0481,-0.8906,0.8924
121671.9565,0.0284,-0.0506,-0.8895,0.8913
121671.9577,0.0294,-0.0524,-0.8907,0.8927
121671.9590,0.0279,-0.0527,-0.8908,0.8928
121671.9602,0.0310,-0.0511,-0.8854,0.8874
121671.9615,0.0316,-0.0548,-0.8846,0.8869
121671.9628,0.0302,-0.0505,-0.8777,0.8797
121671.9640,0.0280,-0.0504,-0.8786,0.8805
121671.9653,0.0270,-0.0528,-0.8814,0.8834
121671.9665,0.0264,-0.0524,-0.8782,0.8802
121671.9678,0.0292,-0.0578,-0.8768,0.8792
121671.9690,0.0276,-0.0529,-0.8762,0.8782
121671.9703,0.0270,-0.0546,-0.8739,0.8761
121671.9715,0.0280,-0.0568,-0.8708,0.8731
121671.9728,0.0235,-0.0553,-0.8694,0.8715
121671.9741,0.0275,-0.0510,-0.8673,0.8692
121671.9753,0.0262,-0.0548,-0.8657,0.8678
121671.9766,0.0249,-0.0532,-0.8627,0.8647
121671.9778,0.0271,-0.0531,-0.8610,0.8630
121671.9791,0.0275,-0.0561,-0.8568,0.8591
121671.9803,0.0292,-0.0552,-0.8581,0.8604
121671.9816,0.0226,-0.0560,-0.8525,0.8547
121671.9828,0.0251,-0.0557,-0.8526,0.8548
121671.9841,0.0275,-0.0585,-0.8489,0.8514
121671.9853,0.0307,-0.0524,-0.8447,0.8469
121671.9866,0.0288,-0.0550,-0.8437,0.8460
121671.9879,0.0295,-0.0533,-0.8395,0.8417
121671.9891,0.0276,-0.0547,-0.8374,0.8396
121671.9904,0.0315,-0.0525,-0.8348,0.8370
121671.9916,0.0322,-0.0513,-0.8347,0.8369
121671.9929,0.0363,-0.0577,-0.8351,0.8379
121671.9941,0.0298,-0.0501,-0.8259,0.8279
121671.9954,0.0343,-0.0513,-0.8257,0.8280
121671.9966,0.0364,-0.0498,-0.8256,0.8279
121671.9979,0.0345,-0.0520,-0.8174,0.8198
121671.9991,0.0382,-0.0496,-0.8175,0.8199
121672.0004,0.0394,-0.0498,-0.8135,0.8160
121672.0017,0.0367,-0.0483,-0.8118,0.8141
121672.0029,0.0403,-0.0475,-0.8064,0.8088
121672.0042,0.0398,-0.0495,-0.8049,0.8074
121672.0054,0.0388,-0.0495,-0.7989,0.8014
121672.0067,0.0447,-0.0531,-0.7916,0.7946
121672.0079,0.0432,-0.0485,-0.7885,0.7912
121672.0092,0.0436,-0.0470,-0.7810,0.7836
121672.0104,0.0438,-0.0517,-0.7784,0.7814
121672.0117,0.0466,-0.0506,-0.7694,0.7724
121672.0130,0.0428,-0.0515,-0.7693,0.7722
121672.0142,0.0505,-0.0505,-0.7624,0.7657
121672.0155,0.0538,-0.0512,-0.7594,0.7630
121672.0167,0.0530,-0.0517,-0.7497,0.7534
121672.0180,0.0543,-0.0506,-0.7487,0.7524
121672.0192,0.0574,-0.0526,-0.7375,0.7416
121672.0205,0.0609,-0.0556,-0.7366,0.7412
121672.0217,0.0569,-0.0558,-0.7284,0.7327
121672.0230,0.0623,-0.0547,-0.7288,0.7335
121672.0242,0.0645,-0.0582,-0.7166,0.7218
121672.0255,0.0675,-0.0633,-0.7119,0.7178
121672.0268,0.0719,-0.0628,-0.7088,0.7152
121672.0280,0.0721,-0.0607,-0.7004,0.7067
121672.0293,0.0764,-0.0650,-0.6928,0.7000
121672.0305,0.0755,-0.0650,-0.6848,0.6920
121672.0318,0.0733,-0.0665,-0.6756,0.6828
121672.0330,0.0806,-0.0668,-0.6672,0.6754
121672.0343,0.0791,-0.0725,-0.6620,0.6706
121672.0355,0.0822,-0.0749,-0.6539,0.6632
121672.0368,0.0828,-0.0733,-0.6490,0.6583
121672.0380,0.0853,-0.0746,-0.6469,0.6567
121672.0393,0.0906,-0.0748,-0.6336,0.6444
121672.0406,0.0911,-0.0809,-0.6292,0.6409
121672.0418,0.0891,-0.0829,-0.6223,0.6341
121672.0431,0.0963,-0.0862,-0.6111,0.6246
121672.0443,0.0935,-0.0929,-0.6049,0.6191
121672.0456,0.0990,-0.0918,-0.5954,0.6105
121672.0468,0.1006,-0.0897,-0.5888,0.6040
121672.0481,0.1004,-0.0922,-0.5784,0.5943
121672.0493,0.1050,-0.0939,-0.5709,0.5880
121672.0506,0.1057,-0.0927,-0.5633,0.5806
121672.0518,0.1013,-0.0962,-0.5497,0.5672
121672.0531,0.1108,-0.0979,-0.5480,0.5676
121672.0544,0.1087,-0.1007,-0.5360,0.5561
121672.0556,0.1084,-0.1013,-0.5245,0.5451
121672.0569,0.1061,-0.1023,-0.5180,0.5385
121672.0581,0.1099,-0.1036,-0.5125,0.5343
121672.0594,0.1142,-0.1047,-0.5062,0.5294
121672.0606,0.1071,-0.1058,-0.4964,0.5187
121672.0619,0.1100,-0.1090,-0.4888,0.5127
121672.0631,0.1107,-0.1071,-0.4839,0.5079
121672.0644,0.1098,-0.1085,-0.4725,0.4971
121672.0657,0.1086,-0.1073,-0.4647,0.4891
121672.0669,0.1078,-0.1115,-0.4563,0.4819
121672.0682,0.1107,-0.1112,-0.4455,0.4723
121672.0694,0.1063,-0.1107,-0.4418,0.4677
121672.0707,0.1062,-0.1130,-0.4321,0.4591
121672.0719,0.1073,-0.1141,-0.4255,0.4534
121672.0732,0.1045,-0.1103,-0.4207,0.4473
121672.0744,0.1049,-0.1166,-0.4152,0.4438
121672.0757,0.0980,-0.1133,-0.4047,0.4315
121672.0769,0.0993,-0.1129,-0.3985,0.4259
121672.0782,0.0945,-0.1104,-0.3915,0.4176
121672.0795,0.0966,-0.1089,-0.3838,0.4105
121672.0807,0.0912,-0.1048,-0.3768,0.4016
121672.0820,0.0891,-0.1004,-0.3681,0.3918
121672.0832,0.0819,-0.0956,-0.3610,0.3823
121672.0845,0.0805,-0.0919,-0.3548,0.3753
121672.0857,0.0790,-0.0890,-0.3439,0.3639
121672.0870,0.0765,-0.0856,-0.3395,0.3584
121672.0882,0.0735,-0.0763,-0.3367,0.3529
121672.0895,0.0670,-0.0741,-0.3329,0.3475
121672.0907,0.0625,-0.0672,-0.3282,0.3408
121672.0920,0.0575,-0.0623,-0.3283,0.3391
121672.0933,0.0558,-0.0547,-0.3186,0.3280
121672.0945,0.0518,-0.0528,-0.3140,0.3226
121672.0958,0.0470,-0.0437,-0.3119,0.3185
121672.0970,0.0457,-0.0345,-0.3010,0.3064
121672.0983,0.0372,-0.0302,-0.2891,0.2930
121672.0995,0.0326,-0.0261,-0.2801,0.2832
121672.1008,0.0261,-0.0175,-0.2763,0.2781
121672.1020,0.0264,-0.0099,-0.2709,0.2723
121672.1033,0.0219,-0.0047,-0.2669,0.2679
121672.1046,0.0202,0.0066,-0.2602,0.2611
121672.1058,0.0141,0.0109,-0.2549,0.2555
121672.1071,0.0111,0.0152,-0.2484,0.2491
121672.1083,0.0103,0.0233,-0.2491,0.2504
121672.1096,0.0085,0.0300,-0.2434,0.2454
121672.1108,0.0048,0.0360,-0.2402,0.2429
121672.1121,0.0011,0.0420,-0.2379,0.2416
121672.1133,-0.0049,0.0463,-0.2359,0.2404
121672.1146,-0.0039,0.0531,-0.2321,0.2382
121672.1158,-0.0025,0.0605,-0.2303,0.2381
121672.1171,-0.0065,0.0661,-0.2258,0.2353
121672.1184,-0.0086,0.0722,-0.2235,0.2350
121672.1196,-0.0097,0.0770,-0.2197,0.2330
121672.1209,-0.0120,0.0831,-0.2152,0.2311
121672.1221,-0.0104,0.0910,-0.2120,0.2309
121672.1234,-0.0118,0.0922,-0.2073,0.2272
121672.1246,-0.0128,0.0987,-0.2050,0.2278
121672.1259,-0.0128,0.0980,-0.2036,0.2263
121672.1271,-0.0149,0.1103,-0.2004,0.2292
121672.1284,-0.0198,0.1128,-0.1962,0.2272
121672.1297,-0.0134,0.1180,-0.1924,0.2261
121672.1309,-0.0132,0.1230,-0.1910,0.2276
121672.1322,-0.0118,0.1309,-0.1867,0.2283
121672.1334,-0.0108,0.1335,-0.1851,0.2285
121672.1347,-0.0107,0.1417,-0.1883,0.2359
121672.1359,-0.0069,0.1460,-0.1846,0.2354
121672.1372,-0.0060,0.1575,-0.1823,0.2410
121672.1384,-0.0011,0.1622,-0.1845,0.2457
121672.1397,0.0023,0.1653,-0.1812,0.2453
121672.1409,0.0044,0.1725,-0.1788,0.2485
121672.1422,0.0078,0.1782,-0.1787,0.2525
121672.1435,0.0095,0.1807,-0.1854,0.2591
121672.1447,0.0135,0.1900,-0.1830,0.2641
121672.1460,0.0169,0.1955,-0.1828,0.2682
121672.1472,0.0208,0.2044,-0.1810,0.2738
121672.1485,0.0257,0.2090,-0.1826,0.2787
121672.1497,0.0309,0.2164,-0.1789,0.2824
121672.1510,0.0353,0.2231,-0.1795,0.2885
121672.1522,0.0378,0.2305,-0.1841,0.2974
121672.1535,0.0436,0.2399,-0.1777,0.3018
121672.1547,0.0494,0.2475,-0.1790,0.3094
121672.1560,0.0511,0.2588,-0.1767,0.3175
121672.1573,0.0551,0.2646,-0.1771,0.3231
121672.1585,0.0544,0.2765,-0.1817,0.3353
121672.1598,0.0623,0.2831,-0.1776,0.3399
121672.1610,0.0630,0.2948,-0.1823,0.3523
121672.1623,0.0688,0.3042,-0.1808,0.3605
121672.1635,0.0731,0.3105,-0.1844,0.3685
121672.1648,0.0739,0.3260,-0.1876,0.3833
121672.1660,0.0746,0.3364,-0.1908,0.3939
121672.1673,0.0792,0.3479,-0.1930,0.4057
121672.1686,0.0857,0.3580,-0.1970,0.4176
121672.1698,0.0884,0.3690,-0.1995,0.4287
121672.1711,0.0895,0.3811,-0.2004,0.4398
121672.1723,0.0945,0.3932,-0.2039,0.4529
121672.1736,0.1014,0.4096,-0.2077,0.4703
121672.1748,0.1042,0.4186,-0.2120,0.4807
121672.1761,0.1104,0.4335,-0.2168,0.4972
121672.1773,0.1118,0.4479,-0.2191,0.5109
121672.1786,0.1186,0.4588,-0.2234,0.5239
121672.1798,0.1287,0.4768,-0.2309,0.5452
121672.1811,0.1306,0.4930,-0.2381,0.5629
121672.1824,0.1337,0.5045,-0.2460,0.5770
121672.1836,0.1400,0.5197,-0.2491,0.5930
121672.1849,0.1475,0.5331,-0.2599,0.6111
121672.1861,0.1560,0.5466,-0.2613,0.6256
121672.1874,0.1614,0.5627,-0.2695,0.6445
121672.1886,0.1673,0.5753,-0.2799,0.6613
121672.1899,0.1749,0.5900,-0.2877,0.6793
121672.1911,0.1771,0.6032,-0.2889,0.6919
121672.1924,0.1915,0.6189,-0.2993,0.7136
121672.1936,0.1965,0.6393,-0.3060,0.7355
121672.1949,0.2100,0.6494,-0.3165,0.7524
121672.1962,0.2141,0.6660,-0.3215,0.7699
121672.1974,0.2245,0.6816,-0.3287,0.7893
121672.1987,0.2285,0.6987,-0.3350,0.8078
121672.1999,0.2401,0.7122,-0.3479,0.8282
121672.2012,0.2456,0.7325,-0.3517,0.8489
121672.2024,0.2556,0.7463,-0.3551,0.8650
121672.2037,0.2633,0.7615,-0.3591,0.8821
121672.2049,0.2728,0.7781,-0.3660,0.9021
121672.2062,0.2816,0.7934,-0.3741,0.9213
121672.2074,0.2908,0.8086,-0.3857,0.9420
121672.2087,0.3014,0.8261,-0.3909,0.9623
121672.2100,0.3088,0.8445,-0.3919,0.9809
121672.2112,0.3176,0.8605,-0.3979,0.9998
121672.2125,0.3245,0.8793,-0.4027,1.0201
121672.2137,0.3342,0.8930,-0.4191,1.0415
121672.2150,0.3413,0.9072,-0.4227,1.0574
121672.2162,0.3496,0.9271,-0.3917,1.0654
121672.2175,0.3610,0.9253,-0.3969,1.0696
121672.2187,0.3635,0.9443,-0.4546,1.1093
121672.2200,0.3652,0.9675,-0.4788,1.1396
121672.2213,0.3785,0.9901,-0.4828,1.1648
121672.2225,0.3878,1.0168,-0.4590,1.1811
121672.2238,0.3951,1.0415,-0.4496,1.2012
121672.2250,0.4069,1.0599,-0.4393,1.2174
121672.2263,0.4125,1.0776,-0.4575,1.2413
121672.2275,0.4240,1.0898,-0.4695,1.2602
121672.2288,0.4285,1.1053,-0.4809,1.2793
121672.2300,0.4398,1.1205,-0.4918,1.3003
121672.2313,0.4481,1.1333,-0.5011,1.3176
121672.2325,0.4587,1.1499,-0.5080,1.3382
121672.2338,0.4644,1.1645,-0.5147,1.3552
121672.2351,0.4732,1.1804,-0.5239,1.3754
121672.2363,0.4802,1.2005,-0.5282,1.3967
121672.2376,0.4898,1.2121,-0.5324,1.4116
121672.2388,0.4973,1.2273,-0.5360,1.4286
121672.2401,0.5053,1.2412,-0.5356,1.4432
121672.2413,0.5084,1.2590,-0.5424,1.4621
121672.2426,0.5148,1.2712,-0.5427,1.4750
121672.2438,0.5186,1.2869,-0.5486,1.4920
121672.2451,0.5270,1.3022,-0.5524,1.5095
121672.2463,0.5334,1.3136,-0.5502,1.5207
121672.2476,0.5320,1.3287,-0.5613,1.5374
121672.2489,0.5373,1.3362,-0.5615,1.5458
121672.2501,0.5439,1.3498,-0.5655,1.5612
121672.2514,0.5448,1.3591,-0.5730,1.5723
121672.2526,0.5429,1.3725,-0.5750,1.5840
121672.2539,0.5482,1.3860,-0.5787,1.5989
121672.2551,0.5479,1.3947,-0.5771,1.6057
121672.2564,0.5510,1.4047,-0.5818,1.6172
121672.2576,0.5507,1.4160,-0.5818,1.6269
121672.2589,0.5523,1.4233,-0.5842,1.6346
121672.2602,0.5563,1.4306,-0.5838,1.6422
121672.2614,0.5540,1.4312,-0.5912,1.6446
121672.2627,0.5542,1.4323,-0.5887,1.6448
121672.2639,0.5591,1.4398,-0.5914,1.6539
121672.2652,0.5594,1.4416,-0.5978,1.6579
121672.2664,0.5600,1.4392,-0.5981,1.6561
121672.2677,0.5648,1.4428,-0.6014,1.6621
121672.2689,0.5649,1.4392,-0.5982,1.6578
121672.2702,0.5692,1.4392,-0.6020,1.6606
121672.2714,0.5690,1.4426,-0.6060,1.6650
121672.2727,0.5689,1.4420,-0.6044,1.6639
121672.2740,0.5746,1.4412,-0.6044,1.6651
121672.2752,0.5782,1.4420,-0.6056,1.6675
121672.2765,0.5806,1.4397,-0.6075,1.6671
121672.2777,0.5823,1.4407,-0.6085,1.6688
121672.2790,0.5828,1.4367,-0.6101,1.6661
121672.2802,0.5876,1.4350,-0.6079,1.6655
121672.2815,0.5961,1.4333,-0.6051,1.6661
121672.2827,0.5991,1.4258,-0.6042,1.6604
121672.2840,0.6018,1.4231,-0.6053,1.6595
121672.2852,0.6060,1.4211,-0.6048,1.6591
121672.2865,0.6079,1.4150,-0.6024,1.6537
121672.2878,0.6153,1.4123,-0.6010,1.6536
121672.2890,0.6200,1.4098,-0.5965,1.6516
121672.2903,0.6223,1.4083,-0.5952,1.6507
121672.2915,0.6261,1.4024,-0.5927,1.6462
121672.2928,0.6326,1.4020,-0.5949,1.6492
121672.2940,0.6375,1.3944,-0.5860,1.6414
121672.2953,0.6458,1.3962,-0.5818,1.6447
121672.2965,0.6484,1.3880,-0.5814,1.6386
121672.2978,0.6537,1.3799,-0.5791,1.6330
121672.2991,0.6587,1.3722,-0.5687,1.6249
121672.3003,0.6677,1.3588,-0.5696,1.6176
121672.3016,0.6681,1.3503,-0.5632,1.6084
121672.3028,0.6781,1.3361,-0.5664,1.6018
121672.3041,0.6819,1.3258,-0.5615,1.5931
121672.3053,0.6892,1.3163,-0.5553,1.5862
121672.3066,0.6934,1.3043,-0.5568,1.5786
121672.3078,0.6952,1.2945,-0.5508,1.5692
121672.3091,0.7023,1.2791,-0.5534,1.5607
121672.3103,0.7100,1.2682,-0.5511,1.5544
121672.3116,0.7122,1.2598,-0.5451,1.5464
121672.3129,0.7168,1.2486,-0.5429,1.5387
121672.3141,0.7245,1.2391,-0.5430,1.5346
121672.3154,0.7207,1.2273,-0.5405,1.5225
121672.3166,0.7252,1.2157,-0.5354,1.5134
121672.3179,0.7299,1.2056,-0.5354,1.5076
121672.3191,0.7315,1.1982,-0.5352,1.5024
121672.3204,0.7365,1.1893,-0.5301,1.4959
121672.3216,0.7353,1.1804,-0.5302,1.4883
121672.3229,0.7372,1.1702,-0.5271,1.4801
121672.3241,0.7383,1.1588,-0.5198,1.4690
121672.3254,0.7361,1.1559,-0.5206,1.4659
121672.3267,0.7380,1.1429,-0.5144,1.4544
121672.3279,0.7418,1.1345,-0.5194,1.4516
121672.3292,0.7398,1.1199,-0.5094,1.4356
121672.3304,0.7402,1.1084,-0.5110,1.4275
121672.3317,0.7416,1.0974,-0.5067,1.4181
121672.3329,0.7407,1.0832,-0.5041,1.4058
121672.3342,0.7429,1.0660,-0.5000,1.3922
121672.3354,0.7454,1.0572,-0.4961,1.3854
121672.3367,0.7467,1.0376,-0.4947,1.3707
121672.3380,0.7430,1.0219,-0.4928,1.3561
121672.3392,0.7463,1.0075,-0.4904,1.3463
121672.3405,0.7450,0.9891,-0.4853,1.3300
121672.3417,0.7471,0.9740,-0.4823,1.3189
121672.3430,0.7507,0.9561,-0.4784,1.3064
121672.3442,0.7503,0.9383,-0.4712,1.2905
121672.3455,0.7502,0.9234,-0.4751,1.2811
121672.3467,0.7519,0.9093,-0.4632,1.2676
121672.3480,0.7518,0.8903,-0.4577,1.2519
121672.3492,0.7566,0.8741,-0.4559,1.2427
121672.3505,0.7535,0.8596,-0.4446,1.2265
121672.3518,0.7595,0.8484,-0.4381,1.2201
121672.3530,0.7613,0.8312,-0.4357,1.2084
121672.3543,0.7666,0.8178,-0.4270,1.1995
121672.3555,0.7698,0.8037,-0.4211,1.1899
121672.3568,0.7772,0.7885,-0.4143,1.1821
121672.3580,0.7780,0.7788,-0.4070,1.1736
121672.3593,0.7839,0.7644,-0.4009,1.1660
121672.3605,0.7855,0.7535,-0.3921,1.1569
121672.3618,0.7924,0.7462,-0.3887,1.1558
121672.3630,0.7982,0.7350,-0.3823,1.1504
121672.3643,0.8042,0.7288,-0.3728,1.1475
121672.3656,0.8101,0.7206,-0.3708,1.1458
121672.3668,0.8187,0.7146,-0.3598,1.1447
121672.3681,0.8236,0.7139,-0.3520,1.1454
121672.3693,0.8289,0.7066,-0.3461,1.1428
121672.3706,0.8389,0.7060,-0.3403,1.1480
121672.3718,0.8441,0.7042,-0.3329,1.1486
121672.3731,0.8524,0.7072,-0.3279,1.1551
121672.3743,0.8573,0.7098,-0.3208,1.1584
121672.3756,0.8641,0.7119,-0.3116,1.1622
121672.3769,0.8763,0.7226,-0.3105,1.1775
121672.3781,0.8822,0.7251,-0.2992,1.1804
121672.3794,0.8871,0.7318,-0.2950,1.1873
121672.3806,0.8954,0.7359,-0.2895,1.1946
121672.3819,0.9072,0.7435,-0.2839,1.2068
121672.3831,0.9150,0.7452,-0.2813,1.2131
121672.3844,0.9265,0.7500,-0.2769,1.2238
121672.3856,0.9296,0.7557,-0.2725,1.2286
121672.3869,0.9443,0.7565,-0.2680,1.2393
121672.3881,0.9498,0.7586,-0.2586,1.2428
121672.3894,0.9554,0.7649,-0.2563,1.2504
121672.3907,0.9627,0.7621,-0.2517,1.2534
121672.3919,0.9721,0.7671,-0.2446,1.2622
121672.3932,0.9771,0.7695,-0.2341,1.2656
121672.3944,0.9847,0.7712,-0.2282,1.2714
121672.3957,0.9881,0.7748,-0.2254,1.2757
121672.3969,0.9946,0.7768,-0.2153,1.2803
121672.3982,0.9968,0.7810,-0.2112,1.2838
121672.3994,1.0042,0.7924,-0.2027,1.2951
121672.4007,1.0042,0.7940,-0.1942,1.2948
121672.4019,1.0083,0.7970,-0.1850,1.2985
121672.4032,1.0109,0.8021,-0.1781,1.3027
121672.4045,1.0088,0.8085,-0.1673,1.3036
121672.4057,1.0116,0.8125,-0.1601,1.3074
121672.4070,1.0115,0.8186,-0.1565,1.3106
121672.4082,1.0066,0.8213,-0.1488,1.3076
121672.4095,1.0088,0.8297,-0.1426,1.3139
121672.4107,1.0049,0.8330,-0.1340,1.3121
121672.4120,1.0030,0.8417,-0.1238,1.3153
121672.4132,1.0028,0.8449,-0.1179,1.3166
121672.4145,1.0013,0.8481,-0.1147,1.3172
121672.4158,1.0004,0.8575,-0.1052,1.3218
121672.4170,0.9966,0.8561,-0.0956,1.3172
121672.4183,0.9944,0.8641,-0.0912,1.3206
121672.4195,0.9903,0.8674,-0.0815,1.3190
121672.4208,0.9903,0.8730,-0.0714,1.3221
121672.4220,0.9876,0.8783,-0.0672,1.3233
121672.4233,0.9830,0.8804,-0.0603,1.3210
121672.4245,0.9842,0.8824,-0.0522,1.3228
121672.4258,0.9798,0.8880,-0.0461,1.3231
121672.4270,0.9825,0.8913,-0.0430,1.3272
121672.4283,0.9791,0.8953,-0.0386,1.3273
121672.4296,0.9764,0.8961,-0.0307,1.3257
121672.4308,0.9766,0.8998,-0.0253,1.3282
121672.4321,0.9738,0.9017,-0.0183,1.3273
121672.4333,0.9716,0.9026,-0.0160,1.3263
121672.4346,0.9711,0.9052,-0.0098,1.3276
121672.4358,0.9707,0.9098,-0.0062,1.3304
121672.4371,0.9696,0.9083,0.0034,1.3286
121672.4383,0.9683,0.9103,0.0092,1.3290
121672.4396,0.9673,0.9066,0.0134,1.3258
121672.4408,0.9671,0.9113,0.0166,1.3289
121672.4421,0.9634,0.9136,0.0235,1.3279
121672.4434,0.9644,0.9145,0.0291,1.3294
121672.4446,0.9632,0.9145,0.0279,1.3285
121672.4459,0.9609,0.9091,0.0359,1.3233
121672.4471,0.9613,0.9122,0.0411,1.3258
121672.4484,0.9630,0.9124,0.0428,1.3273
121672.4496,0.9625,0.9090,0.0474,1.3247
121672.4509,0.9580,0.9104,0.0518,1.3226
121672.4521,0.9612,0.9103,0.0533,1.3249
121672.4534,0.9573,0.9086,0.0580,1.3211
121672.4547,0.9578,0.9093,0.0604,1.3221
121672.4559,0.9590,0.9066,0.0668,1.3214
121672.4572,0.9586,0.9049,0.0686,1.3200
121672.4584,0.9575,0.9040,0.0750,1.3189
121672.4597,0.9548,0.9022,0.0757,1.3158
121672.4609,0.9569,0.9001,0.0772,1.3160
121672.4622,0.9541,0.8937,0.0804,1.3097
121672.4634,0.9588,0.8950,0.0844,1.3143
121672.4647,0.9574,0.8954,0.0880,1.3138
121672.4659,0.9557,0.8924,0.0888,1.3106
121672.4672,0.9549,0.8894,0.0919,1.3082
121672.4685,0.9571,0.8848,0.0915,1.3066
121672.4697,0.9560,0.8836,0.0958,1.3053
121672.4710,0.9576,0.8846,0.0938,1.3071
121672.4722,0.9585,0.8841,0.0993,1.3077
121672.4735,0.9547,0.8792,0.0997,1.3017
121672.4747,0.9554,0.8812,0.1045,1.3039
121672.4760,0.9571,0.8804,0.1066,1.3048
121672.4772,0.9591,0.8812,0.1065,1.3068
121672.4785,0.9561,0.8788,0.1077,1.3031
121672.4797,0.9598,0.8783,0.1137,1.3060
121672.4810,0.9553,0.8781,0.1135,1.3025
121672.4823,0.9594,0.8770,0.1160,1.3050
121672.4835,0.9601,0.8800,0.1140,1.3073
121672.4848,0.9601,0.8775,0.1190,1.3061
121672.4860,0.9628,0.8794,0.1210,1.3095
121672.4873,0.9655,0.8786,0.1207,1.3110
121672.4885,0.9651,0.8808,0.1259,1.3127
121672.4898,0.9663,0.8797,0.1244,1.3127
121672.4910,0.9621,0.8836,0.1293,1.3127
121672.4923,0.9673,0.8823,0.1281,1.3155
121672.4935,0.9685,0.8841,0.1325,1.3180
121672.4948,0.9690,0.8855,0.1337,1.3194
121672.4961,0.9752,0.8866,0.1366,1.3251
121672.4973,0.9787,0.8875,0.1385,1.3283
121672.4986,0.9780,0.8863,0.1408,1.3273
121672.4998,0.9856,0.8927,0.1384,1.3370
121672.5011,0.9848,0.8919,0.1455,1.3366
121672.5023,0.9887,0.8902,0.1478,1.3385
121672.5036,0.9927,0.8938,0.1498,1.3441
121672.5048,0.9975,0.8923,0.1494,1.3467
121672.5061,0.9965,0.8952,0.1516,1.3481
121672.5074,0.9954,0.8911,0.1523,1.3446
121672.5086,1.0018,0.8952,0.1555,1.3524
121672.5099,1.0058,0.8936,0.1582,1.3547
121672.5111,1.0065,0.8912,0.1529,1.3530
121672.5124,1.0061,0.8900,0.1631,1.3531
121672.5136,1.0137,0.8879,0.1550,1.3564
121672.5149,1.0130,0.8893,0.1578,1.3572
121672.5161,1.0135,0.8818,0.1623,1.3531
121672.5174,1.0148,0.8819,0.1623,1.3542
121672.5186,1.0190,0.8819,0.1632,1.3575
121672.5199,1.0190,0.8799,0.1603,1.3558
121672.5212,1.0200,0.8764,0.1608,1.3544
121672.5224,1.0202,0.8717,0.1645,1.3519
121672.5237,1.0214,0.8723,0.1637,1.3531
121672.5249,1.0219,0.8707,0.1653,1.3526
121672.5262,1.0193,0.8637,0.1664,1.3463
121672.5274,1.0215,0.8644,0.1661,1.3484
121672.5287,1.0189,0.8589,0.1651,1.3428
121672.5299,1.0202,0.8556,0.1628,1.3414
121672.5312,1.0192,0.8525,0.1663,1.3391
121672.5324,1.0199,0.8490,0.1633,1.3370
121672.5337,1.0184,0.8464,0.1627,1.3342
121672.5350,1.0162,0.8406,0.1634,1.3289
121672.5362,1.0151,0.8389,0.1621,1.3268
121672.5375,1.0127,0.8377,0.1622,1.3243
121672.5387,1.0138,0.8313,0.1640,1.3213
121672.5400,1.0109,0.8263,0.1647,1.3160
121672.5412,1.0117,0.8205,0.1609,1.3125
121672.5425,1.0075,0.8166,0.1608,1.3068
121672.5437,1.0048,0.8114,0.1562,1.3009
121672.5450,1.0064,0.8092,0.1585,1.3011
121672.5463,1.0015,0.8038,0.1543,1.2934
121672.5475,1.0016,0.7953,0.1584,1.2887
121672.5488,1.0010,0.7917,0.1544,1.2855
121672.5500,1.0004,0.7858,0.1551,1.2815
121672.5513,0.9994,0.7769,0.1550,1.2753
121672.5525,0.9971,0.7695,0.1523,1.2687
121672.5538,0.9971,0.7634,0.1541,1.2652
121672.5550,0.9945,0.7573,0.1540,1.2595
121672.5563,0.9948,0.7493,0.1573,1.2553
121672.5575,0.9941,0.7394,0.1534,1.2484
121672.5588,0.9940,0.7323,0.1496,1.2437
121672.5601,0.9935,0.7259,0.1534,1.2400
121672.5613,0.9942,0.7199,0.1528,1.2369
121672.5626,0.9922,0.7067,0.1474,1.2271
121672.5638,0.9932,0.6993,0.1484,1.2238
121672.5651,0.9922,0.6937,0.1468,1.2196
121672.5663,0.9895,0.6869,0.1484,1.2137
121672.5676,0.9887,0.6806,0.1449,1.2090
121672.5688,0.9903,0.6737,0.1431,1.2063
121672.5701,0.9889,0.6665,0.1453,1.2013
121672.5714,0.9897,0.6561,0.1456,1.1963
121672.5726,0.9878,0.6478,0.1439,1.1900
121672.5739,0.9861,0.6435,0.1383,1.1856
121672.5751,0.9874,0.6354,0.1386,1.1824
121672.5764,0.9883,0.6261,0.1398,1.1783
121672.5776,0.9862,0.6259,0.1405,1.1765
121672.5789,0.9839,0.6170,0.1382,1.1696
121672.5801,0.9851,0.6127,0.1365,1.1681
121672.5814,0.9852,0.6054,0.1349,1.1642
121672.5826,0.9877,0.6010,0.1360,1.1641
121672.5839,0.9886,0.5948,0.1355,1.1617
121672.5852,0.9863,0.5914,0.1342,1.1579
121672.5864,0.9845,0.5857,0.1329,1.1532
121672.5877,0.9874,0.5787,0.1294,1.1518
121672.5889,0.9875,0.5789,0.1322,1.1523
121672.5902,0.9859,0.5721,0.1255,1.1467
121672.5914,0.9828,0.5687,0.1225,1.1421
121672.5927,0.9853,0.5631,0.1224,1.1415
121672.5939,0.9873,0.5608,0.1215,1.1420
121672.5952,0.9874,0.5542,0.1214,1.1388
121672.5964,0.9856,0.5507,0.1197,1.1354
121672.5977,0.9835,0.5511,0.1200,1.1338
121672.5990,0.9822,0.5452,0.1179,1.1295
121672.6002,0.9825,0.5401,0.1151,1.1271
121672.6015,0.9853,0.5378,0.1162,1.1286
121672.6027,0.9844,0.5331,0.1153,1.1254
121672.6040,0.9837,0.5320,0.1158,1.1243
121672.6052,0.9861,0.5280,0.1176,1.1247
121672.6065,0.9840,0.5260,0.1107,1.1213
121672.6077,0.9832,0.5238,0.1190,1.1204
121672.6090,0.9822,0.5187,0.1166,1.1169
121672.6103,0.9839,0.5166,0.1182,1.1176
121672.6115,0.9847,0.5117,0.1186,1.1161
121672.6128,0.9837,0.5096,0.1198,1.1144
121672.6140,0.9803,0.5051,0.1177,1.1091
121672.6153,0.9836,0.5055,0.1144,1.1118
121672.6165,0.9785,0.5048,0.1155,1.1071
121672.6178,0.9789,0.4978,0.1164,1.1043
121672.6190,0.9786,0.4944,0.1139,1.1023
121672.6203,0.9742,0.4939,0.1146,1.0982
121672.6215,0.9789,0.4893,0.1133,1.1002
121672.6228,0.9774,0.4896,0.1154,1.0993
121672.6241,0.9752,0.4879,0.1122,1.0962
121672.6253,0.9767,0.4866,0.1110,1.0968
121672.6266,0.9793,0.4833,0.1104,1.0976
121672.6278,0.9729,0.4805,0.1122,1.0909
121672.6291,0.9729,0.4837,0.1136,1.0924
121672.6303,0.9731,0.4778,0.1156,1.0902
121672.6316,0.9739,0.4757,0.1128,1.0897
121672.6328,0.9739,0.4780,0.1157,1.0910
121672.6341,0.9733,0.4729,0.1120,1.0879
121672.6353,0.9703,0.4709,0.1119,1.0844
121672.6366,0.9732,0.4699,0.1150,1.0868
121672.6379,0.9736,0.4730,0.1132,1.0883
121672.6391,0.9708,0.4697,0.1111,1.0841
121672.6404,0.9707,0.4674,0.1123,1.0832
121672.6416,0.9700,0.4691,0.1140,1.0835
121672.6429,0.9697,0.4623,0.1130,1.0802
121672.6441,0.9701,0.4625,0.1146,1.0808
121672.6454,0.9704,0.4632,0.1141,1.0813
121672.6466,0.9681,0.4624,0.1143,1.0789
121672.6479,0.9720,0.4591,0.1172,1.0813
121672.6491,0.9731,0.4568,0.1201,1.0816
121672.6504,0.9688,0.4557,0.1190,1.0773
121672.6517,0.9680,0.4508,0.1192,1.0745
121672.6529,0.9708,0.4553,0.1228,1.0793
121672.6542,0.9679,0.4525,0.1206,1.0753
121672.6554,0.9691,0.4520,0.1234,1.0764
121672.6567,0.9684,0.4460,0.1201,1.0729
121672.6579,0.9673,0.4467,0.1238,1.0726
121672.6592,0.9680,0.4435,0.1246,1.0720
121672.6604,0.9683,0.4464,0.1236,1.0734
121672.6617,0.9673,0.4446,0.1276,1.0722
121672.6630,0.9686,0.4445,0.1303,1.0736
121672.6642,0.9647,0.4458,0.1339,1.0711
121672.6655,0.9677,0.4444,0.1339,1.0732
121672.6667,0.9660,0.4429,0.1320,1.0709
121672.6680,0.9691,0.4442,0.1328,1.0743
121672.6692,0.9654,0.4465,0.1344,1.0721
121672.6705,0.9664,0.4452,0.1355,1.0726
121672.6717,0.9667,0.4413,0.1353,1.0712
121672.6730,0.9682,0.4491,0.1381,1.0762
121672.6742,0.9661,0.4479,0.1430,1.0745
121672.6755,0.9653,0.4497,0.1447,1.0747
121672.6768,0.9662,0.4520,0.1407,1.0759
121672.6780,0.9635,0.4511,0.1418,1.0733
121672.6793,0.9615,0.4510,0.1426,1.0715
121672.6805,0.9626,0.4521,0.1464,1.0735
121672.6818,0.9635,0.4500,0.1460,1.0734
121672.6830,0.9653,0.4488,0.1457,1.0744
121672.6843,0.9652,0.4527,0.1482,1.0763
121672.6855,0.9640,0.4522,0.1496,1.0752
121672.6868,0.9676,0.4522,0.1511,1.0787
121672.6880,0.9626,0.4519,0.1537,1.0745
121672.6893,0.9633,0.4547,0.1504,1.0758
121672.6906,0.9650,0.4536,0.1536,1.0774
121672.6918,0.9662,0.4544,0.1517,1.0785
121672.6931,0.9635,0.4552,0.1522,1.0764
121672.6943,0.9613,0.4542,0.1543,1.0743
121672.6956,0.9610,0.4579,0.1560,1.0758
121672.6968,0.9605,0.4576,0.1540,1.0750
121672.6981,0.9577,0.4608,0.1555,1.0741
121672.6993,0.9551,0.4605,0.1587,1.0721
121672.7006,0.9552,0.4591,0.1542,1.0709
121672.7019,0.9526,0.4591,0.1576,1.0691
121672.7031,0.9504,0.4572,0.1580,1.0664
121672.7044,0.9472,0.4627,0.1565,1.0657
121672.7056,0.9499,0.4570,0.1575,1.0658
121672.7069,0.9450,0.4586,0.1522,1.0614
121672.7081,0.9448,0.4595,0.1544,1.0619
121672.7094,0.9436,0.4566,0.1545,1.0596
121672.7106,0.9413,0.4579,0.1560,1.0583
121672.7119,0.9349,0.4602,0.1545,1.0534
121672.7131,0.9354,0.4573,0.1534,1.0524
121672.7144,0.9330,0.4551,0.1520,1.0492
121672.7157,0.9336,0.4572,0.1505,1.0504
121672.7169,0.9303,0.4552,0.1494,1.0464
121672.7182,0.9303,0.4545,0.1536,1.0467
121672.7194,0.9241,0.4544,0.1521,1.0410
121672.7207,0.9211,0.4528,0.1555,1.0381
121672.7219,0.9214,0.4490,0.1569,1.0369
121672.7232,0.9176,0.4458,0.1547,1.0318
121672.7244,0.9159,0.4457,0.1520,1.0299
121672.7257,0.9180,0.4464,0.1537,1.0322
121672.7269,0.9132,0.4443,0.1538,1.0271
121672.7282,0.9154,0.4409,0.1465,1.0266
121672.7295,0.9109,0.4431,0.1468,1.0236
121672.7307,0.9071,0.4391,0.1513,1.0191
121672.7320,0.9058,0.4362,0.1462,1.0159
121672.7332,0.9053,0.4371,0.1494,1.0163
121672.7345,0.9035,0.4343,0.1510,1.0138
121672.7357,0.9052,0.4336,0.1479,1.0146
121672.7370,0.9037,0.4348,0.1470,1.0135
121672.7382,0.8996,0.4314,0.1482,1.0086
121672.7395,0.9016,0.4259,0.1461,1.0078
121672.7408,0.9021,0.4249,0.1439,1.0075
121672.7420,0.9027,0.4245,0.1422,1.0076
121672.7433,0.9006,0.4184,0.1406,1.0029
121672.7445,0.8970,0.4146,0.1369,0.9976
121672.7458,0.9003,0.4136,0.1368,1.0001
121672.7470,0.8967,0.4094,0.1343,0.9948
121672.7483,0.9014,0.4106,0.1318,0.9992
121672.7495,0.9018,0.3994,0.1328,0.9952
121672.7508,0.9038,0.3972,0.1293,0.9957
121672.7520,0.9022,0.3998,0.1283,0.9951
121672.7533,0.9038,0.3952,0.1287,0.9948
121672.7546,0.9042,0.3879,0.1281,0.9922
121672.7558,0.9064,0.3851,0.1260,0.9928
121672.7571,0.9061,0.3837,0.1236,0.9918
121672.7583,0.9111,0.3786,0.1247,0.9945
121672.7596,0.9136,0.3754,0.1228,0.9953
121672.7608,0.9119,0.3728,0.1205,0.9925
121672.7621,0.9158,0.3688,0.1232,0.9950
121672.7633,0.9166,0.3690,0.1185,0.9951
121672.7646,0.9181,0.3637,0.1172,0.9944
121672.7658,0.9180,0.3625,0.1148,0.9936
121672.7671,0.9190,0.3614,0.1142,0.9940
121672.7684,0.9209,0.3599,0.1164,0.9956
121672.7696,0.9195,0.3597,0.1155,0.9941
121672.7709,0.9246,0.3572,0.1162,0.9980
121672.7721,0.9283,0.3554,0.1109,1.0002
121672.7734,0.9263,0.3596,0.1107,0.9998
121672.7746,0.9264,0.3551,0.1081,0.9980
121672.7759,0.9314,0.3571,0.1072,1.0033
121672.7771,0.9322,0.3570,0.1112,1.0044
121672.7784,0.9312,0.3593,0.1086,1.0040
121672.7797,0.9355,0.3591,0.1088,1.0080
121672.7809,0.9350,0.3581,0.1060,1.0069
121672.7822,0.9367,0.3583,0.1048,1.0083
121672.7834,0.9413,0.3579,0.1086,1.0129
121672.7847,0.9397,0.3596,0.1067,1.0117
121672.7859,0.9440,0.3628,0.1043,1.0167
121672.7872,0.9447,0.3596,0.1002,1.0157
121672.7884,0.9449,0.3597,0.1050,1.0165
121672.7897,0.9466,0.3587,0.1010,1.0173
121672.7909,0.9502,0.3607,0.1024,1.0215
121672.7922,0.9520,0.3565,0.1010,1.0216
121672.7935,0.9518,0.3592,0.0959,1.0218
121672.7947,0.9546,0.3582,0.0983,1.0243
121672.7960,0.9543,0.3543,0.0986,1.0227
121672.7972,0.9592,0.3531,0.1005,1.0271
121672.7985,0.9583,0.3544,0.1032,1.0270
121672.7997,0.9588,0.3514,0.1015,1.0262
121672.8010,0.9622,0.3525,0.1035,1.0300
121672.8022,0.9615,0.3523,0.1015,1.0290
121672.8035,0.9618,0.3504,0.1045,1.0289
121672.8047,0.9629,0.3492,0.1003,1.0292
121672.8060,0.9646,0.3498,0.0999,1.0309
121672.8073,0.9644,0.3487,0.0985,1.0303
121672.8085,0.9692,0.3454,0.0978,1.0335
121672.8098,0.9705,0.3457,0.0963,1.0348
121672.8110,0.9706,0.3454,0.0953,1.0347
121672.8123,0.9697,0.3438,0.0995,1.0337
121672.8135,0.9688,0.3459,0.0972,1.0332
121672.8148,0.9695,0.3452,0.0981,1.0338
121672.8160,0.9695,0.3495,0.1018,1.0356
121672.8173,0.9673,0.3459,0.1024,1.0324
121672.8186,0.9694,0.3464,0.1036,1.0347
121672.8198,0.9654,0.3467,0.1010,1.0308
121672.8211,0.9713,0.3426,0.1052,1.0353
121672.8223,0.9688,0.3471,0.1049,1.0344
121672.8236,0.9677,0.3480,0.1027,1.0335
121672.8248,0.9616,0.3505,0.1026,1.0286
121672.8261,0.9677,0.3496,0.1048,1.0342
121672.8273,0.9682,0.3516,0.1012,1.0350
121672.8286,0.9645,0.3539,0.1058,1.0328
121672.8298,0.9648,0.3577,0.1028,1.0341
121672.8311,0.9661,0.3604,0.1022,1.0362
121672.8324,0.9645,0.3609,0.1049,1.0352
121672.8336,0.9593,0.3631,0.1059,1.0311
121672.8349,0.9571,0.3685,0.1027,1.0307
121672.8361,0.9584,0.3702,0.1035,1.0326
121672.8374,0.9593,0.3740,0.1060,1.0351
121672.8386,0.9565,0.3742,0.1078,1.0327
121672.8399,0.9526,0.3739,0.1053,1.0287
121672.8411,0.9524,0.3818,0.1091,1.0319
121672.8424,0.9484,0.3766,0.1056,1.0259
121672.8436,0.9441,0.3801,0.1134,1.0241
121672.8449,0.9453,0.3799,0.1063,1.0243
121672.8462,0.9423,0.3820,0.1040,1.0220
121672.8474,0.9428,0.3843,0.1086,1.0239
121672.8487,0.9387,0.3835,0.1076,1.0198
121672.8499,0.9417,0.3834,0.1070,1.0223
121672.8512,0.9394,0.3825,0.1064,1.0199
121672.8524,0.9382,0.3830,0.1078,1.0190
121672.8537,0.9410,0.3847,0.1071,1.0222
121672.8549,0.9386,0.3834,0.1066,1.0195
121672.8562,0.9366,0.3798,0.1071,1.0164
121672.8575,0.9357,0.3798,0.1070,1.0155
121672.8587,0.9356,0.3753,0.1075,1.0137
121672.8600,0.9377,0.3750,0.1062,1.0155
121672.8612,0.9379,0.3745,0.1041,1.0153
121672.8625,0.9328,0.3738,0.1097,1.0109
121672.8637,0.9312,0.3734,0.1080,1.0091
121672.8650,0.9354,0.3667,0.1122,1.0109
121672.8662,0.9342,0.3655,0.1128,1.0095
121672.8675,0.9344,0.3642,0.1104,1.0089
121672.8687,0.9320,0.3623,0.1094,1.0059
121672.8700,0.9332,0.3586,0.1118,1.0059
121672.8713,0.9279,0.3569,0.1104,1.0002
121672.8725,0.9261,0.3533,0.1137,0.9977
121672.8738,0.9290,0.3534,0.1097,1.0000
121672.8750,0.9280,0.3490,0.1116,0.9977
121672.8763,0.9270,0.3454,0.1185,0.9964
121672.8775,0.9287,0.3422,0.1124,0.9961
121672.8788,0.9278,0.3374,0.1097,0.9933
121672.8800,0.9265,0.3338,0.1091,0.9908
121672.8813,0.9286,0.3324,0.1087,0.9922
121672.8825,0.9269,0.3289,0.1101,0.9897
121672.8838,0.9256,0.3251,0.1081,0.9869
121672.8851,0.9246,0.3236,0.1073,0.9854
121672.8863,0.9251,0.3138,0.1074,0.9828
121672.8876,0.9258,0.3136,0.1072,0.9833
121672.8888,0.9207,0.3118,0.1051,0.9777
121672.8901,0.9221,0.3054,0.1042,0.9769
121672.8913,0.9186,0.3023,0.1054,0.9728
121672.8926,0.9194,0.3005,0.1043,0.9728
121672.8938,0.9191,0.3001,0.1018,0.9722
121672.8951,0.9193,0.2985,0.1032,0.9720
121672.8964,0.9163,0.3010,0.1023,0.9698
121672.8976,0.9170,0.3026,0.1079,0.9716
121672.8989,0.9121,0.3008,0.1083,0.9666
121672.9001,0.9181,0.3056,0.1042,0.9733
121672.9014,0.9152,0.3094,0.1067,0.9719
121672.9026,0.9107,0.3073,0.1074,0.9672
121672.9039,0.9170,0.3111,0.1036,0.9738
121672.9051,0.9148,0.3158,0.1003,0.9730
121672.9064,0.9122,0.3185,0.0980,0.9712
121672.9076,0.9178,0.3205,0.0911,0.9764
121672.9089,0.9159,0.3236,0.0966,0.9761
121672.9102,0.9158,0.3278,0.0942,0.9772
121672.9114,0.9142,0.3322,0.0958,0.9774
121672.9127,0.9166,0.3392,0.0932,0.9818
121672.9139,0.9144,0.3443,0.0995,0.9821
121672.9152,0.9141,0.3452,0.0943,0.9817
121672.9164,0.9145,0.3535,0.1001,0.9856
121672.9177,0.9120,0.3561,0.0896,0.9832
121672.9189,0.9172,0.3591,0.0907,0.9891
121672.9202,0.9172,0.3571,0.0910,0.9885
121672.9214,0.9142,0.3616,0.0874,0.9870
121672.9227,0.9169,0.3596,0.0991,0.9899
121672.9240,0.9183,0.3537,0.0951,0.9887
121672.9252,0.9182,0.3522,0.0958,0.9881
121672.9265,0.9193,0.3467,0.0970,0.9873
121672.9277,0.9176,0.3459,0.0999,0.9857
121672.9290,0.9222,0.3374,0.1012,0.9872
121672.9302,0.9210,0.3365,0.1045,0.9861
121672.9315,0.9220,0.3304,0.1019,0.9847
121672.9327,0.9235,0.3273,0.0986,0.9848
121672.9340,0.9221,0.3213,0.1022,0.9818
121672.9352,0.9236,0.3155,0.1058,0.9817
121672.9365,0.9236,0.3121,0.1103,0.9811
121672.9378,0.9252,0.3137,0.1041,0.9824
121672.9390,0.9219,0.3071,0.1022,0.9771
121672.9403,0.9223,0.3068,0.1041,0.9776
121672.9415,0.9237,0.3005,0.1052,0.9771
121672.9428,0.9233,0.2938,0.1076,0.9748
121672.9440,0.9237,0.2990,0.1015,0.9762
121672.9453,0.9234,0.2940,0.1040,0.9746
121672.9465,0.9245,0.2894,0.1030,0.9742
121672.9478,0.9224,0.2925,0.1022,0.9731
121672.9491,0.9223,0.2890,0.1031,0.9720
121672.9503,0.9227,0.2842,0.0983,0.9704
121672.9516,0.9210,0.2835,0.0943,0.9682
121672.9528,0.9235,0.2820,0.0959,0.9703
121672.9541,0.9227,0.2855,0.0950,0.9705
121672.9553,0.9222,0.2836,0.0919,0.9692
121672.9566,0.9242,0.2826,0.0913,0.9708
121672.9578,0.9278,0.2854,0.0891,0.9748
121672.9591,0.9258,0.2830,0.0925,0.9725
121672.9603,0.9256,0.2819,0.0873,0.9715
121672.9616,0.9281,0.2837,0.0875,0.9744
121672.9629,0.9259,0.2864,0.0873,0.9731
121672.9641,0.9301,0.2867,0.0877,0.9772
121672.9654,0.9305,0.2861,0.0814,0.9769
121672.9666,0.9347,0.2907,0.0879,0.9828
121672.9679,0.9308,0.2923,0.0831,0.9792
121672.9691,0.9339,0.2921,0.0794,0.9818
121672.9704,0.9358,0.2902,0.0823,0.9832
121672.9716,0.9355,0.2901,0.0739,0.9822
121672.9729,0.9364,0.2883,0.0773,0.9828
121672.9741,0.9409,0.2876,0.0773,0.9869
121672.9754,0.9385,0.2865,0.0714,0.9838
121672.9767,0.9366,0.2873,0.0702,0.9822
121672.9779,0.9420,0.2908,0.0641,0.9880
121672.9792,0.9365,0.2856,0.0612,0.9810
121672.9804,0.9422,0.2898,0.0585,0.9875
121672.9817,0.9391,0.2943,0.0586,0.9858
121672.9829,0.9441,0.2932,0.0554,0.9902
121672.9842,0.9467,0.2949,0.0515,0.9929
121672.9854,0.9414,0.2975,0.0519,0.9886
121672.9867,0.9424,0.2992,0.0497,0.9900
121672.9880,0.9410,0.2959,0.0506,0.9878
121672.9892,0.9410,0.2967,0.0502,0.9879
121672.9905,0.9443,0.2962,0.0537,0.9911
121672.9917,0.9393,0.2949,0.0498,0.9857
121672.9930,0.9429,0.2943,0.0435,0.9888
121672.9942,0.9421,0.2899,0.0449,0.9867
121672.9955,0.9426,0.2864,0.0443,0.9862
121672.9967,0.9455,0.2897,0.0417,0.9898
121672.9980,0.9466,0.2862,0.0401,0.9898
121672.9992,0.9452,0.2866,0.0411,0.9886
121673.0005,0.9466,0.2829,0.0480,0.9892
121673.0018,0.9508,0.2831,0.0538,0.9935
121673.0030,0.9492,0.2903,0.0528,0.9940
121673.0043,0.9499,0.2905,0.0583,0.9950
121673.0055,0.9481,0.2916,0.0572,0.9936
121673.0068,0.9514,0.2919,0.0637,0.9972
121673.0080,0.9483,0.2943,0.0630,0.9949
121673.0093,0.9472,0.2999,0.0665,0.9957
121673.0105,0.9506,0.2967,0.0693,0.9982
121673.0118,0.9528,0.3005,0.0720,1.0017
121673.0131,0.9522,0.3014,0.0693,1.0012
121673.0143,0.9535,0.3025,0.0701,1.0028
121673.0156,0.9531,0.3058,0.0706,1.0034
121673.0168,0.9583,0.3078,0.0800,1.0097
121673.0181,0.9579,0.3073,0.0793,1.0091
121673.0193,0.9520,0.3111,0.0816,1.0048
121673.0206,0.9571,0.3159,0.0849,1.0115
121673.0218,0.9554,0.3142,0.0868,1.0095
121673.0231,0.9517,0.3190,0.0870,1.0075
121673.0243,0.9516,0.3214,0.0844,1.0080
121673.0256,0.9524,0.3236,0.0851,1.0094
121673.0269,0.9529,0.3216,0.0861,1.0094
121673.0281,0.9541,0.3184,0.0869,1.0095
121673.0294,0.9503,0.3168,0.0840,1.0052
121673.0306,0.9496,0.3177,0.0857,1.0050
121673.0319,0.9516,0.3194,0.0905,1.0078
121673.0331,0.9523,0.3193,0.0940,1.0088
121673.0344,0.9471,0.3188,0.0946,1.0038
121673.0356,0.9469,0.3185,0.0982,1.0038
121673.0369,0.9516,0.3101,0.0984,1.0056
121673.0381,0.9510,0.3039,0.0959,1.0030
121673.0394,0.9478,0.3016,0.0997,0.9996
121673.0407,0.9466,0.2972,0.0963,0.9969
121673.0419,0.9468,0.2938,0.0909,0.9955
121673.0432,0.9515,0.2879,0.0907,0.9982
121673.0444,0.9487,0.2850,0.0879,0.9945
121673.0457,0.9488,0.2830,0.0868,0.9939
121673.0469,0.9504,0.2849,0.0906,0.9963
121673.0482,0.9506,0.2781,0.0858,0.9941
121673.0494,0.9539,0.2779,0.0884,0.9974
121673.0507,0.9509,0.2810,0.0912,0.9957
121673.0520,0.9493,0.2806,0.0891,0.9939
121673.0532,0.9542,0.2793,0.0865,0.9980
121673.0545,0.9522,0.2798,0.0850,0.9961
121673.0557,0.9558,0.2793,0.0845,0.9993
121673.0570,0.9551,0.2765,0.0810,0.9976
121673.0582,0.9536,0.2751,0.0849,0.9961
121673.0595,0.9562,0.2766,0.0810,0.9987
121673.0607,0.9535,0.2786,0.0823,0.9967
121673.0620,0.9541,0.2774,0.0816,0.9969
121673.0632,0.9562,0.2823,0.0811,1.0003
121673.0645,0.9542,0.2783,0.0833,0.9974
121673.0658,0.9539,0.2833,0.0801,0.9983
121673.0670,0.9531,0.2850,0.0808,0.9981
121673.0683,0.9529,0.2824,0.0772,0.9968
121673.0695,0.9542,0.2840,0.0812,0.9988
121673.0708,0.9513,0.2873,0.0805,0.9970
121673.0720,0.9529,0.2880,0.0739,0.9982
121673.0733,0.9519,0.2869,0.0760,0.9971
121673.0745,0.9528,0.2923,0.0718,0.9992
121673.0758,0.9498,0.2891,0.0704,0.9953
121673.0770,0.9478,0.2895,0.0677,0.9934
121673.0783,0.9479,0.2917,0.0685,0.9942
121673.0796,0.9446,0.2953,0.0658,0.9919
121673.0808,0.9421,0.2919,0.0692,0.9887
121673.0821,0.9406,0.2950,0.0696,0.9883
121673.0833,0.9366,0.2993,0.0656,0.9855
121673.0846,0.9373,0.2998,0.0720,0.9868
121673.0858,0.9348,0.3008,0.0734,0.9847
121673.0871,0.9344,0.2990,0.0714,0.9837
121673.0883,0.9310,0.2979,0.0738,0.9803
121673.0896,0.9301,0.2961,0.0746,0.9790
121673.0908,0.9299,0.2928,0.0763,0.9779
121673.0921,0.9255,0.2923,0.0707,0.9732
121673.0934,0.9269,0.2876,0.0679,0.9729
121673.0946,0.9214,0.2840,0.0683,0.9666
121673.0959,0.9225,0.2837,0.0645,0.9673
121673.0971,0.9204,0.2798,0.0650,0.9642
121673.0984,0.9173,0.2761,0.0608,0.9599
121673.0996,0.9141,0.2732,0.0601,0.9559
121673.1009,0.9163,0.2741,0.0644,0.9586
121673.1021,0.9121,0.2744,0.0641,0.9547
121673.1034,0.9130,0.2714,0.0622,0.9545
121673.1047,0.9092,0.2733,0.0632,0.9515
121673.1059,0.9129,0.2715,0.0611,0.9544
121673.1072,0.9081,0.2744,0.0601,0.9505
121673.1084,0.9056,0.2704,0.0588,0.9470
121673.1097,0.9055,0.2760,0.0593,0.9485
121673.1109,0.9034,0.2732,0.0574,0.9455
121673.1122,0.9027,0.2757,0.0562,0.9456
121673.1134,0.9002,0.2812,0.0540,0.9447
121673.1147,0.9007,0.2846,0.0550,0.9462
121673.1159,0.8988,0.2826,0.0571,0.9439
121673.1172,0.8978,0.2864,0.0595,0.9442
121673.1185,0.8951,0.2903,0.0633,0.9432
121673.1197,0.8968,0.2906,0.0656,0.9449
121673.1210,0.8941,0.2921,0.0709,0.9433
121673.1222,0.8904,0.2964,0.0742,0.9413
121673.1235,0.8919,0.2968,0.0797,0.9434
121673.1247,0.8871,0.3000,0.0844,0.9402
121673.1260,0.8890,0.2998,0.0828,0.9418
121673.1272,0.8885,0.3040,0.0868,0.9431
121673.1285,0.8825,0.3039,0.0852,0.9372
121673.1297,0.8848,0.3074,0.0910,0.9411
121673.1310,0.8824,0.3100,0.0883,0.9394
121673.1323,0.8849,0.3128,0.0883,0.9427
121673.1335,0.8829,0.3206,0.0843,0.9431
121673.1348,0.8826,0.3231,0.0896,0.9441
121673.1360,0.8790,0.3331,0.0901,0.9443
121673.1373,0.8812,0.3378,0.0917,0.9481
121673.1385,0.8773,0.3481,0.0888,0.9480
121673.1398,0.8764,0.3539,0.0934,0.9498
121673.1410,0.8745,0.3613,0.0884,0.9504
121673.1423,0.8718,0.3710,0.0970,0.9524
121673.1436,0.8743,0.3781,0.0963,0.9574
121673.1448,0.8729,0.3808,0.0934,0.9569
121673.1461,0.8725,0.3885,0.0981,0.9601
121673.1473,0.8695,0.3909,0.0947,0.9580
121673.1486,0.8725,0.3924,0.0960,0.9615
121673.1498,0.8730,0.3981,0.1018,0.9649
121673.1511,0.8676,0.3969,0.0964,0.9590
121673.1523,0.8703,0.3963,0.0964,0.9611
121673.1536,0.8692,0.3973,0.0990,0.9608
121673.1548,0.8666,0.3954,0.1011,0.9579
121673.1561,0.8680,0.3913,0.1008,0.9575
121673.1574,0.8692,0.3875,0.0978,0.9567
121673.1586,0.8692,0.3838,0.0987,0.9553
121673.1599,0.8673,0.3748,0.1021,0.9503
121673.1611,0.8703,0.3723,0.1031,0.9522
121673.1624,0.8691,0.3701,0.1066,0.9507
121673.1636,0.8684,0.3646,0.1082,0.9480
121673.1649,0.8623,0.3601,0.1082,0.9407
121673.1661,0.8625,0.3564,0.1091,0.9396
121673.1674,0.8649,0.3525,0.1143,0.9409
121673.1686,0.8664,0.3497,0.1142,0.9413
121673.1699,0.8620,0.3461,0.1132,0.9358
121673.1712,0.8631,0.3422,0.1194,0.9361
121673.1724,0.8613,0.3358,0.1198,0.9322
121673.1737,0.8636,0.3394,0.1181,0.9353
121673.1749,0.8643,0.3366,0.1186,0.9351
121673.1762,0.8612,0.3331,0.1240,0.9317
121673.1774,0.8661,0.3342,0.1228,0.9364
121673.1787,0.8627,0.3352,0.1243,0.9338
121673.1799,0.8626,0.3287,0.1281,0.9319
121673.1812,0.8692,0.3301,0.1257,0.9382
121673.1825,0.8626,0.3295,0.1292,0.9324
121673.1837,0.8659,0.3307,0.1356,0.9368
121673.1850,0.8664,0.3233,0.1367,0.9348
121673.1862,0.8678,0.3242,0.1385,0.9367
121673.1875,0.8692,0.3239,0.1377,0.9377
121673.1887,0.8722,0.3233,0.1479,0.9419
121673.1900,0.8719,0.3222,0.1501,0.9415
121673.1912,0.8752,0.3276,0.1504,0.9465
121673.1925,0.8756,0.3304,0.1547,0.9486
121673.1937,0.8801,0.3315,0.1539,0.9529
121673.1950,0.8789,0.3324,0.1611,0.9533
121673.1963,0.8753,0.3319,0.1624,0.9501
121673.1975,0.8808,0.3353,0.1627,0.9564
121673.1988,0.8793,0.3347,0.1610,0.9546
121673.2000,0.8805,0.3406,0.1659,0.9585
121673.2013,0.8772,0.3434,0.1744,0.9581
121673.2025,0.8772,0.3427,0.1735,0.9576
121673.2038,0.8769,0.3426,0.1783,0.9582
121673.2050,0.8775,0.3441,0.1797,0.9595
121673.2063,0.8819,0.3459,0.1798,0.9642
121673.2075,0.8777,0.3423,0.1835,0.9598
121673.2088,0.8803,0.3487,0.1864,0.9650
121673.2101,0.8843,0.3516,0.1866,0.9698
121673.2113,0.8817,0.3530,0.1877,0.9681
121673.2126,0.8841,0.3537,0.1907,0.9711
121673.2138,0.8834,0.3531,0.1931,0.9708
121673.2151,0.8891,0.3578,0.1911,0.9772
121673.2163,0.8899,0.3578,0.1891,0.9777
121673.2176,0.8876,0.3599,0.1901,0.9764
121673.2188,0.8864,0.3611,0.1906,0.9759
121673.2201,0.8906,0.3678,0.1881,0.9818
121673.2214,0.8877,0.3728,0.1910,0.9815
121673.2226,0.8885,0.3755,0.1918,0.9835
121673.2239,0.8922,0.3765,0.1956,0.9879
121673.2251,0.8931,0.3831,0.1984,0.9918
121673.2264,0.8883,0.3848,0.1999,0.9885
121673.2276,0.8924,0.3860,0.1987,0.9924
121673.2289,0.8923,0.3839,0.2083,0.9935
121673.2301,0.8952,0.3820,0.2055,0.9947
121673.2314,0.8995,0.3758,0.2108,0.9974
121673.2326,0.8997,0.3792,0.2195,1.0008
121673.2339,0.8980,0.3773,0.2184,0.9982
121673.2352,0.8982,0.3781,0.2218,0.9994
121673.2364,0.8980,0.3721,0.2258,0.9979
121673.2377,0.9006,0.3686,0.2251,0.9988
121673.2389,0.9015,0.3678,0.2278,0.9999
121673.2402,0.8987,0.3681,0.2319,0.9984
121673.2414,0.8997,0.3674,0.2305,0.9987
121673.2427,0.9016,0.3695,0.2320,1.0016
121673.2439,0.8999,0.3669,0.2327,0.9993
121673.2452,0.8974,0.3707,0.2349,0.9990
121673.2464,0.9019,0.3709,0.2368,1.0035
121673.2477,0.9003,0.3673,0.2321,0.9997
121673.2490,0.9014,0.3675,0.2346,1.0013
121673.2502,0.9041,0.3657,0.2314,1.0024
121673.2515,0.9032,0.3674,0.2365,1.0033
121673.2527,0.9016,0.3659,0.2363,1.0013
121673.2540,0.8995,0.3663,0.2328,0.9987
121673.2552,0.9009,0.3685,0.2324,1.0007
121673.2565,0.9007,0.3702,0.2287,1.0003
121673.2577,0.9006,0.3718,0.2296,1.0010
121673.2590,0.8998,0.3753,0.2240,1.0003
121673.2603,0.8977,0.3753,0.2234,0.9983
121673.2615,0.8940,0.3781,0.2222,0.9957
121673.2628,0.8960,0.3822,0.2230,0.9993
121673.2640,0.8922,0.3833,0.2148,0.9945
121673.2653,0.8920,0.3839,0.2130,0.9942
121673.2665,0.8889,0.3881,0.2085,0.9921
121673.2678,0.8875,0.3913,0.2067,0.9917
121673.2690,0.8869,0.3924,0.1973,0.9897
121673.2703,0.8834,0.3965,0.1995,0.9886
121673.2715,0.8850,0.3961,0.1977,0.9895
121673.2728,0.8844,0.4013,0.1931,0.9902
121673.2741,0.8814,0.4017,0.1907,0.9872
121673.2753,0.8847,0.4032,0.1898,0.9906
121673.2766,0.8816,0.4092,0.1837,0.9891
121673.2778,0.8780,0.4135,0.1812,0.9872
121673.2791,0.8815,0.4153,0.1765,0.9903
121673.2803,0.8824,0.4183,0.1716,0.9915
121673.2816,0.8829,0.4208,0.1757,0.9937
121673.2828,0.8800,0.4326,0.1713,0.9954
121673.2841,0.8818,0.4374,0.1704,0.9990
121673.2853,0.8827,0.4469,0.1710,1.0040
121673.2866,0.8826,0.4525,0.1756,1.0072
121673.2879,0.8790,0.4604,0.1774,1.0080
121673.2891,0.8796,0.4630,0.1827,1.0106
121673.2904,0.8770,0.4676,0.1869,1.0113
121673.2916,0.8823,0.4687,0.1915,1.0173
121673.2929,0.8832,0.4728,0.1899,1.0197
121673.2941,0.8847,0.4716,0.1932,1.0210
121673.2954,0.8825,0.4691,0.1977,1.0188
121673.2966,0.8837,0.4671,0.2026,1.0199
121673.2979,0.8843,0.4655,0.2065,1.0204
121673.2992,0.8827,0.4650,0.2072,1.0190
121673.3004,0.8855,0.4605,0.2137,1.0207
121673.3017,0.8868,0.4567,0.2192,1.0213
121673.3029,0.8871,0.4533,0.2200,1.0202
121673.3042,0.8889,0.4521,0.2171,1.0206
121673.3054,0.8904,0.4543,0.2209,1.0237
121673.3067,0.8910,0.4598,0.2231,1.0272
121673.3079,0.8899,0.4577,0.2195,1.0245
121673.3092,0.8909,0.4583,0.2231,1.0265
121673.3104,0.8892,0.4635,0.2261,1.0279
121673.3117,0.8882,0.4636,0.2268,1.0272
121673.3130,0.8860,0.4663,0.2310,1.0276
121673.3142,0.8834,0.4682,0.2352,1.0271
121673.3155,0.8838,0.4676,0.2328,1.0266
121673.3167,0.8826,0.4633,0.2355,1.0243
121673.3180,0.8833,0.4597,0.2383,1.0239
121673.3192,0.8836,0.4634,0.2419,1.0266
121673.3205,0.8771,0.4607,0.2426,1.0200
121673.3217,0.8769,0.4535,0.2427,1.0166
121673.3230,0.8766,0.4527,0.2449,1.0166
121673.3242,0.8771,0.4463,0.2426,1.0136
121673.3255,0.8725,0.4387,0.2424,1.0062
121673.3268,0.8715,0.4348,0.2365,1.0022
121673.3280,0.8685,0.4302,0.2361,0.9976
121673.3293,0.8703,0.4216,0.2366,0.9956
121673.3305,0.8723,0.4211,0.2374,0.9973
121673.3318,0.8662,0.4194,0.2372,0.9912
121673.3330,0.8648,0.4150,0.2391,0.9885
121673.3343,0.8652,0.4158,0.2375,0.9888
121673.3355,0.8618,0.4226,0.2416,0.9897
121673.3368,0.8562,0.4288,0.2447,0.9884
121673.3381,0.8562,0.4403,0.2473,0.9940
121673.3393,0.8517,0.4498,0.2522,0.9956
121673.3406,0.8483,0.4653,0.2561,1.0009
121673.3418,0.8469,0.4763,0.2604,1.0059
121673.3431,0.8411,0.4890,0.2602,1.0072
121673.3443,0.8381,0.5033,0.2613,1.0119
121673.3456,0.8320,0.5080,0.2598,1.0089
121673.3468,0.8323,0.5181,0.2515,1.0121
121673.3481,0.8284,0.5295,0.2458,1.0135
121673.3493,0.8262,0.5338,0.2444,1.0136
121673.3506,0.8250,0.5374,0.2445,1.0145
121673.3519,0.8238,0.5406,0.2490,1.0163
121673.3531,0.8239,0.5406,0.2501,1.0167
121673.3544,0.8194,0.5404,0.2579,1.0149
121673.3556,0.8160,0.5397,0.2564,1.0114
121673.3569,0.8161,0.5318,0.2621,1.0088
121673.3581,0.8102,0.5238,0.2717,1.0023
121673.3594,0.8142,0.5122,0.2780,1.0013
121673.3606,0.8118,0.5067,0.2855,0.9987
121673.3619,0.8104,0.4978,0.2979,0.9966
121673.3631,0.8072,0.4862,0.3078,0.9913
121673.3644,0.8084,0.4779,0.3140,0.9902
121673.3657,0.8118,0.4659,0.3242,0.9906
121673.3669,0.8085,0.4550,0.3308,0.9849
121673.3682,0.8072,0.4454,0.3399,0.9826
121673.3694,0.8099,0.4374,0.3468,0.9836
121673.3707,0.8067,0.4306,0.3559,0.9813
121673.3719,0.8062,0.4287,0.3620,0.9822
121673.3732,0.8104,0.4252,0.3672,0.9861
121673.3744,0.8125,0.4241,0.3707,0.9887
121673.3757,0.8146,0.4186,0.3784,0.9910
121673.3769,0.8133,0.4181,0.3775,0.9893
121673.3782,0.8147,0.4183,0.3796,0.9914
121673.3795,0.8191,0.4151,0.3824,0.9947
121673.3807,0.8181,0.4193,0.3908,0.9990
121673.3820,0.8217,0.4157,0.3849,0.9981
121673.3832,0.8230,0.4142,0.3802,0.9967
121673.3845,0.8273,0.4114,0.3821,0.9998
121673.3857,0.8273,0.4072,0.3813,0.9978
121673.3870,0.8292,0.4062,0.3803,0.9986
121673.3882,0.8283,0.3971,0.3769,0.9929
121673.3895,0.8299,0.3936,0.3723,0.9911
121673.3908,0.8300,0.3912,0.3777,0.9923
121673.3920,0.8327,0.3879,0.3782,0.9934
121673.3933,0.8316,0.3900,0.3733,0.9915
121673.3945,0.8311,0.3846,0.3760,0.9900
121673.3958,0.8340,0.3805,0.3727,0.9896
121673.3970,0.8324,0.3826,0.3730,0.9891
121673.3983,0.8333,0.3871,0.3701,0.9906
121673.3995,0.8324,0.3906,0.3703,0.9912
121673.4008,0.8321,0.3903,0.3698,0.9907
121673.4020,0.8382,0.3988,0.3676,0.9984
121673.4033,0.8376,0.4017,0.3600,0.9963
121673.4046,0.8384,0.4086,0.3560,0.9983
121673.4058,0.8446,0.4112,0.3493,1.0022
121673.4071,0.8408,0.4108,0.3465,0.9979
121673.4083,0.8476,0.4078,0.3351,0.9985
121673.4096,0.8461,0.4047,0.3241,0.9923
121673.4108,0.8497,0.3973,0.3144,0.9892
121673.4121,0.8485,0.3895,0.3027,0.9815
121673.4133,0.8499,0.3875,0.2941,0.9792
121673.4146,0.8518,0.3826,0.2962,0.9796
121673.4158,0.8473,0.3735,0.2951,0.9719
121673.4171,0.8482,0.3637,0.2963,0.9693
121673.4184,0.8492,0.3582,0.2906,0.9664
121673.4196,0.8492,0.3548,0.2945,0.9662
121673.4209,0.8484,0.3472,0.2890,0.9612
121673.4221,0.8477,0.3459,0.2907,0.9606
121673.4234,0.8416,0.3479,0.2921,0.9563
121673.4246,0.8398,0.3448,0.2945,0.9544
121673.4259,0.8349,0.3438,0.2935,0.9495
121673.4271,0.8341,0.3464,0.2996,0.9516
121673.4284,0.8282,0.3468,0.3028,0.9475
121673.4297,0.8264,0.3453,0.3056,0.9464
121673.4309,0.8270,0.3523,0.3176,0.9534
121673.4322,0.8233,0.3597,0.3212,0.9541
121673.4334,0.8218,0.3573,0.3339,0.9563
121673.4347,0.8203,0.3645,0.3413,0.9603
121673.4359,0.8177,0.3716,0.3595,0.9675
121673.4372,0.8120,0.3723,0.3727,0.9679
121673.4384,0.8105,0.3751,0.3749,0.9686
121673.4397,0.8087,0.3774,0.3836,0.9713
121673.4409,0.8081,0.3805,0.3900,0.9746
121673.4422,0.8021,0.3866,0.4011,0.9766
121673.4435,0.7996,0.3898,0.4039,0.9770
121673.4447,0.8002,0.3866,0.4081,0.9779
121673.4460,0.8003,0.3846,0.4105,0.9782
121673.4472,0.7978,0.3822,0.4150,0.9772
121673.4485,0.8016,0.3724,0.4160,0.9769
121673.4497,0.7971,0.3631,0.4150,0.9692
121673.4510,0.8008,0.3636,0.4150,0.9725
121673.4522,0.8003,0.3570,0.4157,0.9699
121673.4535,0.7989,0.3594,0.4125,0.9683
121673.4548,0.8003,0.3526,0.4137,0.9674
121673.4560,0.7995,0.3495,0.4196,0.9682
121673.4573,0.8018,0.3451,0.4176,0.9677
121673.4585,0.7979,0.3420,0.4091,0.9597
121673.4598,0.8000,0.3318,0.4083,0.9575
121673.4610,0.7978,0.3279,0.4051,0.9529
121673.4623,0.7963,0.3224,0.4087,0.9514
121673.4635,0.7976,0.3146,0.4098,0.9503
121673.4648,0.7966,0.3074,0.4079,0.9463
121673.4660,0.7954,0.2992,0.4040,0.9410
121673.4673,0.7965,0.2990,0.4039,0.9418
121673.4686,0.7955,0.2963,0.3983,0.9377
121673.4698,0.7985,0.2948,0.3956,0.9386
121673.4711,0.8034,0.2969,0.3889,0.9406
121673.4723,0.7961,0.2969,0.3824,0.9318
121673.4736,0.8013,0.2975,0.3749,0.9333
121673.4748,0.8051,0.3051,0.3777,0.9402
121673.4761,0.8026,0.3087,0.3762,0.9386
121673.4773,0.8090,0.3101,0.3777,0.9452
121673.4786,0.8077,0.3149,0.3750,0.9446
121673.4798,0.8096,0.3205,0.3755,0.9483
121673.4811,0.8181,0.3192,0.3731,0.9541
121673.4824,0.8170,0.3159,0.3699,0.9508
121673.4836,0.8219,0.3163,0.3669,0.9540
121673.4849,0.8174,0.3082,0.3632,0.9460
121673.4861,0.8237,0.2985,0.3608,0.9475
121673.4874,0.8235,0.2977,0.3540,0.9445
121673.4886,0.8261,0.2904,0.3468,0.9418
121673.4899,0.8283,0.2889,0.3372,0.9398
121673.4911,0.8361,0.2865,0.3293,0.9432
121673.4924,0.8384,0.2931,0.3270,0.9464
121673.4937,0.8407,0.2965,0.3298,0.9505
121673.4949,0.8426,0.3082,0.3278,0.9552
121673.4962,0.8477,0.3172,0.3214,0.9605
121673.4974,0.8444,0.3298,0.3200,0.9613
121673.4987,0.8496,0.3366,0.3109,0.9653
121673.4999,0.8506,0.3445,0.3106,0.9689
121673.5012,0.8482,0.3550,0.3077,0.9696
121673.5024,0.8451,0.3636,0.3027,0.9685
121673.5037,0.8479,0.3672,0.3000,0.9714
121673.5049,0.8443,0.3688,0.2966,0.9679
121673.5062,0.8459,0.3697,0.3035,0.9718
121673.5075,0.8438,0.3724,0.3063,0.9718
121673.5087,0.8427,0.3749,0.3080,0.9724
121673.5100,0.8381,0.3826,0.3161,0.9740
121673.5112,0.8369,0.3855,0.3207,0.9757
121673.5125,0.8402,0.3880,0.3247,0.9808
121673.5137,0.8366,0.3882,0.3351,0.9813
121673.5150,0.8359,0.3883,0.3307,0.9792
121673.5162,0.8358,0.3916,0.3298,0.9802
121673.5175,0.8358,0.3945,0.3339,0.9827
121673.5187,0.8313,0.3951,0.3397,0.9810
121673.5200,0.8334,0.3999,0.3453,0.9868
121673.5213,0.8322,0.4023,0.3514,0.9888
121673.5225,0.8288,0.4059,0.3666,0.9930
121673.5238,0.8291,0.4081,0.3775,0.9982
121673.5250,0.8316,0.4117,0.3928,1.0076
121673.5263,0.8333,0.4044,0.4026,1.0099
121673.5275,0.8272,0.4021,0.4063,1.0055
121673.5288,0.8314,0.3965,0.4139,1.0098
121673.5300,0.8321,0.3874,0.4138,1.0068
121673.5313,0.8340,0.3810,0.4185,1.0079
121673.5325,0.8329,0.3756,0.4231,1.0069
121673.5338,0.8361,0.3702,0.4268,1.0091
121673.5351,0.8347,0.3662,0.4314,1.0084
121673.5363,0.8390,0.3604,0.4368,1.0123
121673.5376,0.8361,0.3573,0.4406,1.0104
121673.5388,0.8377,0.3590,0.4400,1.0120
121673.5401,0.8386,0.3506,0.4408,1.0102
121673.5413,0.8399,0.3532,0.4325,1.0086
121673.5426,0.8414,0.3497,0.4301,1.0076
121673.5438,0.8411,0.3490,0.4265,1.0056
